trials.thisRepN,trials.thisTrialN,trials.thisN,trials.thisIndex,thisRow.t,notes,trial.started,num_distr,fixation.started,target.started,mouse.started,trial.stopped,mouse.x,mouse.y,mouse.leftButton,mouse.midButton,mouse.rightButton,mouse.time,mouse.clicked_name,participant,session,date,expName,psychopyVersion,frameRate,expStart,
0,0,0,0,0.08823159988969564,,0.015649500070139766,10,0.08823159988969564,0.08823159988969564,0.06761190015822649,2.5216747999656945,[-0.10185185185185185],[-0.020370370370370372],[1],[0],[0],[2.4533080998808146],['target'],01,001,2024-10-04_11h28.19.708,VisualSearch,2024.1.5,None,2024-10-04 11h28.39.760062 +0530,
1,0,1,0,2.5607803999446332,,2.5266007999889553,10,2.5607803999446332,2.5607803999446332,0.026119800051674247,4.644937299890444,[-0.3814814814814815],[-0.3212962962962963],[1],[0],[0],[2.092065100092441],['target'],01,001,2024-10-04_11h28.19.708,VisualSearch,2024.1.5,None,2024-10-04 11h28.39.760062 +0530,
2,0,2,0,4.732714100042358,,4.6523682998958975,10,4.732714100042358,4.732714100042358,0.05932699982076883,7.628184600034729,[0.34074074074074073],[0.1111111111111111],[1],[0],[0],[2.917685499880463],['target'],01,001,2024-10-04_11h28.19.708,VisualSearch,2024.1.5,None,2024-10-04 11h28.39.760062 +0530,
3,0,3,0,7.659468000056222,,7.632369600003585,5,7.659468000056222,7.659468000056222,0.019013799959793687,10.112596800085157,[-0.2518518518518518],[-0.4074074074074074],[1],[0],[0],[2.4613807001151145],['target'],01,001,2024-10-04_11h28.19.708,VisualSearch,2024.1.5,None,2024-10-04 11h28.39.760062 +0530,
4,0,4,0,10.165951200062409,,10.119180399924517,5,10.165951200062409,10.165951200062409,0.032265499932691455,12.344649399863556,[-0.25833333333333336],[0.23796296296296296],[1],[0],[0],[2.193746600067243],['target'],01,001,2024-10-04_11h28.19.708,VisualSearch,2024.1.5,None,2024-10-04 11h28.39.760062 +0530,
5,0,5,0,12.398717999923974,,12.351212600013241,5,12.398717999923974,12.398717999923974,0.03717819997109473,13.959153200034052,[-0.4675925925925926],[-0.30462962962962964],[1],[0],[0],[1.5714110000990331],['target'],01,001,2024-10-04_11h28.19.708,VisualSearch,2024.1.5,None,2024-10-04 11h28.39.760062 +0530,
6,0,6,0,14.045227899914607,,13.965497799916193,10,14.045227899914607,14.045227899914607,0.05841970001347363,16.688531399937347,[0.09444444444444444],[-0.12129629629629629],[1],[0],[0],[2.665743000106886],['target'],01,001,2024-10-04_11h28.19.708,VisualSearch,2024.1.5,None,2024-10-04 11h28.39.760062 +0530,
7,0,7,0,16.70720830000937,,16.69077660003677,5,16.70720830000937,16.70720830000937,0.01064100000075996,19.22101249988191,[-0.17407407407407408],[-0.3416666666666667],[1],[0],[0],[2.5193276000209153],['target'],01,001,2024-10-04_11h28.19.708,VisualSearch,2024.1.5,None,2024-10-04 11h28.39.760062 +0530,
8,0,8,0,19.31386339990422,,19.228582199895754,10,19.31386339990422,19.31386339990422,0.06286579999141395,21.529304099967703,[0.23981481481481481],[0.17222222222222222],[1],[0],[0],[2.2386248998809606],['target'],01,001,2024-10-04_11h28.19.708,VisualSearch,2024.1.5,None,2024-10-04 11h28.39.760062 +0530,
9,0,9,0,21.578569500008598,,21.536391699919477,5,21.578569500008598,21.578569500008598,0.029453800059854984,24.26593769993633,[0.4935185185185185],[-0.12314814814814815],[1],[0],[0],[2.7008450999855995],['target'],01,001,2024-10-04_11h28.19.708,VisualSearch,2024.1.5,None,2024-10-04 11h28.39.760062 +0530,
10,0,10,0,24.35104149999097,,24.273093600058928,10,24.35104149999097,24.35104149999097,0.0668005000334233,26.862768599996343,[0.25925925925925924],[0.12222222222222222],[1],[0],[0],[2.5241070999763906],['target'],01,001,2024-10-04_11h28.19.708,VisualSearch,2024.1.5,None,2024-10-04 11h28.39.760062 +0530,
11,0,11,0,26.89265919988975,,26.866552100051194,5,26.89265919988975,26.89265919988975,0.01837929990142584,29.560839700046927,[0.42314814814814816],[-0.09074074074074075],[1],[0],[0],[2.6761022999417037],['target'],01,001,2024-10-04_11h28.19.708,VisualSearch,2024.1.5,None,2024-10-04 11h28.39.760062 +0530,
12,0,12,0,29.631694899871945,,29.56677579996176,10,29.631694899871945,29.631694899871945,0.05312879988923669,32.35835159989074,[0.12314814814814815],[0.46296296296296297],[1],[0],[0],[2.739136200165376],['target'],01,001,2024-10-04_11h28.19.708,VisualSearch,2024.1.5,None,2024-10-04 11h28.39.760062 +0530,
13,0,13,0,32.42560589988716,,32.364750399952754,10,32.42560589988716,32.42560589988716,0.048570899991318583,35.51188010000624,[-0.37037037037037035],[-0.1],[1],[0],[0],[3.099035599967465],['target'],01,001,2024-10-04_11h28.19.708,VisualSearch,2024.1.5,None,2024-10-04 11h28.39.760062 +0530,
14,0,14,0,35.56064849998802,,35.518136099912226,5,35.56064849998802,35.56064849998802,0.03398790000937879,37.27057809988037,[-0.2175925925925926],[-0.03888888888888889],[1],[0],[0],[1.7191355999093503],['target'],01,001,2024-10-04_11h28.19.708,VisualSearch,2024.1.5,None,2024-10-04 11h28.39.760062 +0530,
15,0,15,0,37.32021729997359,,37.27703109988943,5,37.32021729997359,37.32021729997359,0.030918899923563004,39.05172750004567,[-0.4083333333333333],[-0.17222222222222222],[1],[0],[0],[1.744464399991557],['target'],01,001,2024-10-04_11h28.19.708,VisualSearch,2024.1.5,None,2024-10-04 11h28.39.760062 +0530,
16,0,16,0,39.10526890004985,,39.05834749992937,5,39.10526890004985,39.10526890004985,0.033657999942079186,40.76719060004689,[0.1259259259259259],[0.2101851851851852],[1],[0],[0],[1.6756855000276119],['target'],01,001,2024-10-04_11h28.19.708,VisualSearch,2024.1.5,None,2024-10-04 11h28.39.760062 +0530,
17,0,17,0,40.811324399895966,,40.77371019986458,5,40.811324399895966,40.811324399895966,0.030196900013834238,43.36676579993218,[-0.13333333333333333],[-0.36944444444444446],[1],[0],[0],[2.5634184998925775],['target'],01,001,2024-10-04_11h28.19.708,VisualSearch,2024.1.5,None,2024-10-04 11h28.39.760062 +0530,
18,0,18,0,43.41716860001907,,43.37311869999394,5,43.41716860001907,43.41716860001907,0.03159110015258193,45.94599929987453,[0.3055555555555556],[-0.412962962962963],[1],[0],[0],[2.5421162000857294],['target'],01,001,2024-10-04_11h28.19.708,VisualSearch,2024.1.5,None,2024-10-04 11h28.39.760062 +0530,
19,0,19,0,46.021303799934685,,45.9528651998844,10,46.021303799934685,46.021303799934685,0.05462729977443814,49.89607480005361,[-0.3453703703703704],[0.40925925925925927],[1],[0],[0],[3.8893629999365658],['target'],01,001,2024-10-04_11h28.19.708,VisualSearch,2024.1.5,None,2024-10-04 11h28.39.760062 +0530,
20,0,20,0,49.979791099904105,,49.902622000081465,10,49.979791099904105,49.979791099904105,0.056221900042146444,51.57828509993851,[-0.3],[0.4759259259259259],[1],[0],[0],[1.6197850001044571],['target'],01,001,2024-10-04_11h28.19.708,VisualSearch,2024.1.5,None,2024-10-04 11h28.39.760062 +0530,
21,0,21,0,51.62700239988044,,51.58451740001328,5,51.62700239988044,51.62700239988044,0.030492299934849143,54.02316129999235,[0.12685185185185185],[-0.34814814814814815],[1],[0],[0],[2.4086648002266884],['target'],01,001,2024-10-04_11h28.19.708,VisualSearch,2024.1.5,None,2024-10-04 11h28.39.760062 +0530,
22,0,22,0,54.08203609986231,,54.03387070004828,10,54.08203609986231,54.08203609986231,0.039709300035610795,55.696520699886605,[0.037037037037037035],[-0.1425925925925926],[1],[0],[0],[1.6241851998493075],['target'],01,001,2024-10-04_11h28.19.708,VisualSearch,2024.1.5,None,2024-10-04 11h28.39.760062 +0530,
23,0,23,0,55.72200690000318,,55.700557299889624,5,55.72200690000318,55.72200690000318,0.016019700095057487,57.96847050008364,[0.2222222222222222],[0.13703703703703704],[1],[0],[0],[2.2519728001207113],['target'],01,001,2024-10-04_11h28.19.708,VisualSearch,2024.1.5,None,2024-10-04 11h28.39.760062 +0530,
24,0,24,0,58.04373189993203,,57.975356000009924,10,58.04373189993203,58.04373189993203,0.05537070007994771,60.48151670000516,[-0.3962962962962963],[0.19907407407407407],[1],[0],[0],[2.451817899942398],['target'],01,001,2024-10-04_11h28.19.708,VisualSearch,2024.1.5,None,2024-10-04 11h28.39.760062 +0530,
25,0,25,0,60.51134920003824,,60.4854033999145,5,60.51134920003824,60.51134920003824,0.01781319989822805,62.4804839999415,[-0.42407407407407405],[0.06759259259259259],[1],[0],[0],[1.9774222001433372],['target'],01,001,2024-10-04_11h28.19.708,VisualSearch,2024.1.5,None,2024-10-04 11h28.39.760062 +0530,
26,0,26,0,62.53131069988012,,62.48747289995663,5,62.53131069988012,62.53131069988012,0.031142899999395013,64.49670829996467,[-0.24351851851851852],[0.09722222222222222],[1],[0],[0],[1.9787290000822395],['target'],01,001,2024-10-04_11h28.19.708,VisualSearch,2024.1.5,None,2024-10-04 11h28.39.760062 +0530,
27,0,27,0,64.56609149998985,,64.50330549990758,10,64.56609149998985,64.56609149998985,0.05070809996686876,66.32663249992765,[0.03148148148148148],[0.26851851851851855],[1],[0],[0],[1.7736184999812394],['target'],01,001,2024-10-04_11h28.19.708,VisualSearch,2024.1.5,None,2024-10-04 11h28.39.760062 +0530,
28,0,28,0,66.3624378000386,,66.33174409996718,5,66.3624378000386,66.3624378000386,0.02208789996802807,68.70795569987968,[0.06111111111111111],[-0.4111111111111111],[1],[0],[0],[2.3550418000668287],['target'],01,001,2024-10-04_11h28.19.708,VisualSearch,2024.1.5,None,2024-10-04 11h28.39.760062 +0530,
29,0,29,0,68.74957889993675,,68.7119632998947,10,68.74957889993675,68.74957889993675,0.030125899938866496,72.10505890008062,[0.026851851851851852],[-0.04722222222222222],[1],[0],[0],[3.363256299868226],['target'],01,001,2024-10-04_11h28.19.708,VisualSearch,2024.1.5,None,2024-10-04 11h28.39.760062 +0530,
30,0,30,0,72.14537600008771,,72.10917169996537,5,72.14537600008771,72.14537600008771,0.02329509984701872,73.95365089992993,[-0.39351851851851855],[0.17407407407407408],[1],[0],[0],[1.8210530001670122],['target'],01,001,2024-10-04_11h28.19.708,VisualSearch,2024.1.5,None,2024-10-04 11h28.39.760062 +0530,
31,0,31,0,73.99615809996612,,73.95995309995487,5,73.99615809996612,73.99615809996612,0.028142500203102827,75.95144949993119,[-0.1537037037037037],[-0.31574074074074077],[1],[0],[0],[1.9636103000957519],['target'],01,001,2024-10-04_11h28.19.708,VisualSearch,2024.1.5,None,2024-10-04 11h28.39.760062 +0530,
32,0,32,0,76.00200149999,,75.958559300052,5,76.00200149999,76.00200149999,0.029878400033339858,78.54833279992454,[-0.4962962962962963],[-0.44722222222222224],[1],[0],[0],[2.5608397000469267],['target'],01,001,2024-10-04_11h28.19.708,VisualSearch,2024.1.5,None,2024-10-04 11h28.39.760062 +0530,
33,0,33,0,78.63213080004789,,78.55445840000175,10,78.63213080004789,78.63213080004789,0.057208500104025006,82.19550750008784,[-0.42592592592592593],[0.38796296296296295],[1],[0],[0],[3.5844698001164943],['target'],01,001,2024-10-04_11h28.19.708,VisualSearch,2024.1.5,None,2024-10-04 11h28.39.760062 +0530,
34,0,34,0,82.2403076000046,,82.20143519993871,5,82.2403076000046,82.2403076000046,0.029595799976959825,84.62660970003344,[-0.06018518518518518],[0.30462962962962964],[1],[0],[0],[2.3961430999916047],['target'],01,001,2024-10-04_11h28.19.708,VisualSearch,2024.1.5,None,2024-10-04 11h28.39.760062 +0530,
35,0,35,0,84.67664649989456,,84.63279900001362,5,84.67664649989456,84.67664649989456,0.03018070012331009,86.40812709997408,[0.2212962962962963],[0.32592592592592595],[1],[0],[0],[1.7460028000641614],['target'],01,001,2024-10-04_11h28.19.708,VisualSearch,2024.1.5,None,2024-10-04 11h28.39.760062 +0530,
36,0,36,0,86.49987529986538,,86.41566299996339,10,86.49987529986538,86.49987529986538,0.05537219997495413,88.82205899991095,[0.47314814814814815],[0.30648148148148147],[1],[0],[0],[2.352332699811086],['target'],01,001,2024-10-04_11h28.19.708,VisualSearch,2024.1.5,None,2024-10-04 11h28.39.760062 +0530,
37,0,37,0,88.88867380004376,,88.82779780006967,10,88.88867380004376,88.88867380004376,0.047986100194975734,92.61833279998973,[0.2222222222222222],[-0.47129629629629627],[1],[0],[0],[3.7434956000652164],['target'],01,001,2024-10-04_11h28.19.708,VisualSearch,2024.1.5,None,2024-10-04 11h28.39.760062 +0530,
38,0,38,0,92.64841270004399,,92.62251270003617,5,92.64841270004399,92.64841270004399,0.020662900060415268,95.31730440002866,[0.3814814814814815],[0.19907407407407407],[1],[0],[0],[2.674228700110689],['target'],01,001,2024-10-04_11h28.19.708,VisualSearch,2024.1.5,None,2024-10-04 11h28.39.760062 +0530,
39,0,39,0,95.36308049992658,,95.32391280005686,5,95.36308049992658,95.36308049992658,0.029822900192812085,97.53084959997796,[0.41944444444444445],[-0.29907407407407405],[1],[0],[0],[2.1777796999085695],['target'],01,001,2024-10-04_11h28.19.708,VisualSearch,2024.1.5,None,2024-10-04 11h28.39.760062 +0530,
40,0,40,0,97.60180739988573,,97.53759670001455,10,97.60180739988573,97.60180739988573,0.0514487000182271,99.6284799000714,[-0.17407407407407408],[-0.2777777777777778],[1],[0],[0],[2.0402948001865298],['target'],01,001,2024-10-04_11h28.19.708,VisualSearch,2024.1.5,None,2024-10-04 11h28.39.760062 +0530,
41,0,41,0,99.66226210002787,,99.63264449988492,5,99.66226210002787,99.66226210002787,0.019804200157523155,101.49434089986607,[0.11574074074074074],[-0.07962962962962963],[1],[0],[0],[1.8419903002213687],['target'],01,001,2024-10-04_11h28.19.708,VisualSearch,2024.1.5,None,2024-10-04 11h28.39.760062 +0530,
42,0,42,0,101.54942609998398,,101.50450859987177,5,101.54942609998398,101.54942609998398,0.032809299882501364,103.32602409995161,[0.30648148148148147],[0.37407407407407406],[1],[0],[0],[1.789889499777928],['target'],01,001,2024-10-04_11h28.19.708,VisualSearch,2024.1.5,None,2024-10-04 11h28.39.760062 +0530,
43,0,43,0,103.39250219985843,,103.33230919996276,10,103.39250219985843,103.39250219985843,0.046396299963817,105.40609960001893,[-0.1648148148148148],[0.13425925925925927],[1],[0],[0],[2.0284170999657363],['target'],01,001,2024-10-04_11h28.19.708,VisualSearch,2024.1.5,None,2024-10-04 11h28.39.760062 +0530,
44,0,44,0,105.43937759986147,,105.40995329990983,5,105.43937759986147,105.43937759986147,0.019205200020223856,107.15585189987905,[-0.45092592592592595],[0.07407407407407407],[1],[0],[0],[1.7266984998714179],['target'],01,001,2024-10-04_11h28.19.708,VisualSearch,2024.1.5,None,2024-10-04 11h28.39.760062 +0530,
45,0,45,0,107.21168210008182,,107.16369419987313,5,107.21168210008182,107.21168210008182,0.03351990017108619,109.36961079994217,[0.18425925925925926],[-0.005555555555555556],[1],[0],[0],[2.173968399874866],['target'],01,001,2024-10-04_11h28.19.708,VisualSearch,2024.1.5,None,2024-10-04 11h28.39.760062 +0530,
46,0,46,0,109.45777880004607,,109.3768650998827,10,109.45777880004607,109.45777880004607,0.05847269995138049,113.68293019989505,[0.31666666666666665],[0.4722222222222222],[1],[0],[0],[4.248587699839845],['target'],01,001,2024-10-04_11h28.19.708,VisualSearch,2024.1.5,None,2024-10-04 11h28.39.760062 +0530,
47,0,47,0,113.73246719990857,,113.68924189987592,5,113.73246719990857,113.73246719990857,0.02913859998807311,115.36475210008211,[0.007407407407407408],[0.12685185185185185],[1],[0],[0],[1.6471979999914765],['target'],01,001,2024-10-04_11h28.19.708,VisualSearch,2024.1.5,None,2024-10-04 11h28.39.760062 +0530,
48,0,48,0,115.41778080002405,,115.37204109993763,5,115.41778080002405,115.41778080002405,0.03527879994362593,120.37669649999589,[0.16018518518518518],[0.21944444444444444],[1],[0],[0],[4.970117599936202],['target'],01,001,2024-10-04_11h28.19.708,VisualSearch,2024.1.5,None,2024-10-04 11h28.39.760062 +0530,
49,0,49,0,120.42612689989619,,120.38331720000133,5,120.42612689989619,120.42612689989619,0.02975980006158352,122.37453450006433,[-0.15462962962962962],[0.06296296296296296],[1],[0],[0],[1.962307200068608],['target'],01,001,2024-10-04_11h28.19.708,VisualSearch,2024.1.5,None,2024-10-04 11h28.39.760062 +0530,
50,0,50,0,122.4292144998908,,122.38091449998319,5,122.4292144998908,122.4292144998908,0.032129199942573905,125.22185910004191,[-0.24814814814814815],[0.26944444444444443],[1],[0],[0],[2.809469500090927],['target'],01,001,2024-10-04_11h28.19.708,VisualSearch,2024.1.5,None,2024-10-04 11h28.39.760062 +0530,
51,0,51,0,125.29973419988528,,125.22875289991498,10,125.29973419988528,125.29973419988528,0.05322870006784797,128.14102869993076,[0.32407407407407407],[0.04537037037037037],[1],[0],[0],[2.859779299935326],['target'],01,001,2024-10-04_11h28.19.708,VisualSearch,2024.1.5,None,2024-10-04 11h28.39.760062 +0530,
52,0,52,0,128.19388499995694,,128.14350680005737,10,128.19388499995694,128.19388499995694,0.029046099865809083,130.000028999988,[0.18333333333333332],[-0.27314814814814814],[1],[0],[0],[1.8277708000969142],['target'],01,001,2024-10-04_11h28.19.708,VisualSearch,2024.1.5,None,2024-10-04 11h28.39.760062 +0530,
53,0,53,0,130.05012340005487,,130.0032373999711,10,130.05012340005487,130.05012340005487,0.03057599999010563,131.9161151999142,[0.2759259259259259],[0.15092592592592594],[1],[0],[0],[1.8821956000756472],['target'],01,001,2024-10-04_11h28.19.708,VisualSearch,2024.1.5,None,2024-10-04 11h28.39.760062 +0530,
54,0,54,0,131.97429060004652,,131.9202508998569,10,131.97429060004652,131.97429060004652,0.03927099984139204,134.16412159986794,[0.47314814814814815],[-0.01574074074074074],[1],[0],[0],[2.2048066998831928],['target'],01,001,2024-10-04_11h28.19.708,VisualSearch,2024.1.5,None,2024-10-04 11h28.39.760062 +0530,
55,0,55,0,134.21128430007957,,134.1705960999243,10,134.21128430007957,134.21128430007957,0.03212170000188053,139.79274840001017,[0.27870370370370373],[0.47129629629629627],[1],[0],[0],[5.590826400090009],['target'],01,001,2024-10-04_11h28.19.708,VisualSearch,2024.1.5,None,2024-10-04 11h28.39.760062 +0530,
56,0,56,0,139.83827760000713,,139.79863169998862,5,139.83827760000713,139.83827760000713,0.02832509996369481,142.93904389999807,[-0.16574074074074074],[-0.36203703703703705],[1],[0],[0],[3.1124830001499504],['target'],01,001,2024-10-04_11h28.19.708,VisualSearch,2024.1.5,None,2024-10-04 11h28.39.760062 +0530,
57,0,57,0,143.00967890000902,,142.94524780008942,10,143.00967890000902,143.00967890000902,0.049243099987506866,146.63427449995652,[0.04351851851851852],[0.30092592592592593],[1],[0],[0],[3.6406037001870573],['target'],01,001,2024-10-04_11h28.19.708,VisualSearch,2024.1.5,None,2024-10-04 11h28.39.760062 +0530,
58,0,58,0,146.6936512000393,,146.63835659995675,10,146.6936512000393,146.6936512000393,0.03903279989026487,148.54969569994137,[-0.11851851851851852],[-0.22962962962962963],[1],[0],[0],[1.8725264000240713],['target'],01,001,2024-10-04_11h28.19.708,VisualSearch,2024.1.5,None,2024-10-04 11h28.39.760062 +0530,
59,0,59,0,148.5925737998914,,148.55559229990467,5,148.5925737998914,148.5925737998914,0.02622290002182126,150.5663803999778,[0.24166666666666667],[-0.30277777777777776],[1],[0],[0],[1.9850944001227617],['target'],01,001,2024-10-04_11h28.19.708,VisualSearch,2024.1.5,None,2024-10-04 11h28.39.760062 +0530,
60,0,60,0,150.65628240001388,,150.57270350004546,10,150.65628240001388,150.65628240001388,0.05835710000246763,153.3118368999567,[0.3990740740740741],[0.42407407407407405],[1],[0],[0],[2.6816463000141084],['target'],01,001,2024-10-04_11h28.19.708,VisualSearch,2024.1.5,None,2024-10-04 11h28.39.760062 +0530,
61,0,61,0,153.3432384999469,,153.31572959991172,5,153.3432384999469,153.3432384999469,0.01810380001552403,156.00979229994118,[0.21481481481481482],[-0.4212962962962963],[1],[0],[0],[2.6759244999848306],['target'],01,001,2024-10-04_11h28.19.708,VisualSearch,2024.1.5,None,2024-10-04 11h28.39.760062 +0530,
62,0,62,0,156.10386859998107,,156.0176109999884,10,156.10386859998107,156.10386859998107,0.059204400051385164,157.95967129990458,[0.2962962962962963],[-0.3175925925925926],[1],[0],[0],[1.8836019998416305],['target'],01,001,2024-10-04_11h28.19.708,VisualSearch,2024.1.5,None,2024-10-04 11h28.39.760062 +0530,
63,0,63,0,158.03949259989895,,157.9632985999342,10,158.03949259989895,158.03949259989895,0.04012479982338846,161.2206448998768,[-0.42314814814814816],[0.22870370370370371],[1],[0],[0],[3.2175469999201596],['target'],01,001,2024-10-04_11h28.19.708,VisualSearch,2024.1.5,None,2024-10-04 11h28.39.760062 +0530,
64,0,64,0,161.25570089998655,,161.22492869989946,5,161.25570089998655,161.25570089998655,0.020351799903437495,163.1043763998896,[-0.39444444444444443],[-0.14722222222222223],[1],[0],[0],[1.859280299860984],['target'],01,001,2024-10-04_11h28.19.708,VisualSearch,2024.1.5,None,2024-10-04 11h28.39.760062 +0530,
65,0,65,0,163.19397510006092,,163.1119862999767,10,163.19397510006092,163.19397510006092,0.06017849990166724,164.92259699990973,[0.26666666666666666],[0.025],[1],[0],[0],[1.7510842999909073],['target'],01,001,2024-10-04_11h28.19.708,VisualSearch,2024.1.5,None,2024-10-04 11h28.39.760062 +0530,
66,0,66,0,164.99859059997834,,164.9284741000738,10,164.99859059997834,164.99859059997834,0.05307399993762374,166.63293239986524,[0.2101851851851852],[-0.4101851851851852],[1],[0],[0],[1.6523955999873579],['target'],01,001,2024-10-04_11h28.19.708,VisualSearch,2024.1.5,None,2024-10-04 11h28.39.760062 +0530,
67,0,67,0,166.6719674000051,,166.63921350007877,5,166.6719674000051,166.6719674000051,0.021386199863627553,169.94666259991936,[-0.24537037037037038],[0.4685185185185185],[1],[0],[0],[3.2867094001267105],['target'],01,001,2024-10-04_11h28.19.708,VisualSearch,2024.1.5,None,2024-10-04 11h28.39.760062 +0530,
68,0,68,0,170.04059770004824,,169.95336470007896,10,170.04059770004824,170.04059770004824,0.06096650008112192,172.71361469989643,[0.39444444444444443],[-0.42962962962962964],[1],[0],[0],[2.7002576999366283],['target'],01,001,2024-10-04_11h28.19.708,VisualSearch,2024.1.5,None,2024-10-04 11h28.39.760062 +0530,
69,0,69,0,172.77259539999068,,172.71762029989623,10,172.77259539999068,172.77259539999068,0.036390700144693255,175.02438149997033,[0.21388888888888888],[-0.021296296296296296],[1],[0],[0],[2.2706363999750465],['target'],01,001,2024-10-04_11h28.19.708,VisualSearch,2024.1.5,None,2024-10-04 11h28.39.760062 +0530,
70,0,70,0,175.07709949999116,,175.02797099994496,10,175.07709949999116,175.07709949999116,0.035331099992617965,176.706288699992,[-0.06851851851851852],[0.19814814814814816],[1],[0],[0],[1.643259200034663],['target'],01,001,2024-10-04_11h28.19.708,VisualSearch,2024.1.5,None,2024-10-04 11h28.39.760062 +0530,
71,0,71,0,176.74176730006002,,176.71067860000767,5,176.74176730006002,176.74176730006002,0.019666200038045645,178.75543459993787,[-0.19444444444444445],[-0.020370370370370372],[1],[0],[0],[2.025229400023818],['target'],01,001,2024-10-04_11h28.19.708,VisualSearch,2024.1.5,None,2024-10-04 11h28.39.760062 +0530,
72,0,72,0,178.84670029999688,,178.76211649994366,10,178.84670029999688,178.84670029999688,0.06039120000787079,180.55271840002388,[-0.09907407407407408],[-0.35462962962962963],[1],[0],[0],[1.7313194999005646],['target'],01,001,2024-10-04_11h28.19.708,VisualSearch,2024.1.5,None,2024-10-04 11h28.39.760062 +0530,
73,0,73,0,180.63454629993066,,180.55879299994558,10,180.63454629993066,180.63454629993066,0.05480000004172325,183.08338299999014,[0.4648148148148148],[-0.42777777777777776],[1],[0],[0],[2.47075830004178],['target'],01,001,2024-10-04_11h28.19.708,VisualSearch,2024.1.5,None,2024-10-04 11h28.39.760062 +0530,
74,0,74,0,183.14008729998022,,183.08679239987396,10,183.14008729998022,183.14008729998022,0.03814740013331175,184.93340259999968,[-0.19074074074074074],[-0.32685185185185184],[1],[0],[0],[1.8084889999590814],['target'],01,001,2024-10-04_11h28.19.708,VisualSearch,2024.1.5,None,2024-10-04 11h28.39.760062 +0530,
75,0,75,0,184.96889819996431,,184.93743989989161,5,184.96889819996431,184.96889819996431,0.020017199916765094,187.68019569991156,[-0.35],[0.05648148148148148],[1],[0],[0],[2.7226284998469055],['target'],01,001,2024-10-04_11h28.19.708,VisualSearch,2024.1.5,None,2024-10-04 11h28.39.760062 +0530,
76,0,76,0,187.76956170005724,,187.69005710002966,10,187.76956170005724,187.76956170005724,0.0668870999943465,191.44227229990065,[0.25277777777777777],[0.34814814814814815],[1],[0],[0],[3.6873614999931306],['target'],01,001,2024-10-04_11h28.19.708,VisualSearch,2024.1.5,None,2024-10-04 11h28.39.760062 +0530,
77,0,77,0,191.49965710006654,,191.4464491000399,10,191.49965710006654,191.49965710006654,0.03866710001602769,194.5239977000747,[-0.40925925925925927],[-0.03981481481481482],[1],[0],[0],[3.0388969001360238],['target'],01,001,2024-10-04_11h28.19.708,VisualSearch,2024.1.5,None,2024-10-04 11h28.39.760062 +0530,
78,0,78,0,194.58893389999866,,194.53010370000266,10,194.58893389999866,194.58893389999866,0.045189599972218275,196.87020260002464,[0.022222222222222223],[0.14444444444444443],[1],[0],[0],[2.295982199953869],['target'],01,001,2024-10-04_11h28.19.708,VisualSearch,2024.1.5,None,2024-10-04 11h28.39.760062 +0530,
79,0,79,0,196.8889579998795,,196.8724501999095,5,196.8889579998795,196.8889579998795,0.01069859997369349,199.5854311999865,[0.18981481481481483],[-0.08796296296296297],[1],[0],[0],[2.702102000126615],['target'],01,001,2024-10-04_11h28.19.708,VisualSearch,2024.1.5,None,2024-10-04 11h28.39.760062 +0530,
80,0,80,0,199.6761990999803,,199.59246389986947,10,199.6761990999803,199.6761990999803,0.06072210008278489,201.76618429995142,[-0.33425925925925926],[-0.15648148148148147],[1],[0],[0],[2.114276100182906],['target'],01,001,2024-10-04_11h28.19.708,VisualSearch,2024.1.5,None,2024-10-04 11h28.39.760062 +0530,
81,0,81,0,201.79743200005032,,201.77019120007753,5,201.79743200005032,201.79743200005032,0.01930649997666478,204.18121690000407,[0.2777777777777778],[-0.4648148148148148],[1],[0],[0],[2.3918905998580158],['target'],01,001,2024-10-04_11h28.19.708,VisualSearch,2024.1.5,None,2024-10-04 11h28.39.760062 +0530,
82,0,82,0,204.26013799989596,,204.18808249989524,10,204.26013799989596,204.26013799989596,0.05694349994882941,207.3612067999784,[-0.43796296296296294],[-0.2916666666666667],[1],[0],[0],[3.117149099940434],['target'],01,001,2024-10-04_11h28.19.708,VisualSearch,2024.1.5,None,2024-10-04 11h28.39.760062 +0530,
83,0,83,0,207.41719780000858,,207.36538979993202,10,207.41719780000858,207.41719780000858,0.04117109999060631,210.22490549995564,[-0.17685185185185184],[-0.45740740740740743],[1],[0],[0],[2.8189358999952674],['target'],01,001,2024-10-04_11h28.19.708,VisualSearch,2024.1.5,None,2024-10-04 11h28.39.760062 +0530,
84,0,84,0,210.25755389989354,,210.22902229987085,5,210.25755389989354,210.25755389989354,0.01931679993867874,212.64007589989342,[-0.3351851851851852],[0.37777777777777777],[1],[0],[0],[2.391978200059384],['target'],01,001,2024-10-04_11h28.19.708,VisualSearch,2024.1.5,None,2024-10-04 11h28.39.760062 +0530,
85,0,85,0,212.69368500006385,,212.6469991998747,5,212.69368500006385,212.69368500006385,0.031052300008013844,215.28741410002112,[0.0],[-0.04814814814814815],[1],[0],[0],[2.6105418999213725],['target'],01,001,2024-10-04_11h28.19.708,VisualSearch,2024.1.5,None,2024-10-04 11h28.39.760062 +0530,
86,0,86,0,215.3788165000733,,215.29425719985738,10,215.3788165000733,215.3788165000733,0.06251169997267425,217.2553818000015,[-0.01574074074074074],[-0.2898148148148148],[1],[0],[0],[1.8994054000359029],['target'],01,001,2024-10-04_11h28.19.708,VisualSearch,2024.1.5,None,2024-10-04 11h28.39.760062 +0530,
87,0,87,0,217.34404599992558,,217.26234090002254,10,217.34404599992558,217.34404599992558,0.05893990001641214,219.1776429999154,[0.11481481481481481],[-0.24351851851851852],[1],[0],[0],[1.8572074000257999],['target'],01,001,2024-10-04_11h28.19.708,VisualSearch,2024.1.5,None,2024-10-04 11h28.39.760062 +0530,
88,0,88,0,219.26786309992895,,219.18534119985998,10,219.26786309992895,219.26786309992895,0.06072429986670613,221.38181370007806,[-0.1712962962962963],[0.11203703703703703],[1],[0],[0],[2.136670600157231],['target'],01,001,2024-10-04_11h28.19.708,VisualSearch,2024.1.5,None,2024-10-04 11h28.39.760062 +0530,
89,0,89,0,221.41755019989796,,221.38587479991838,5,221.41755019989796,221.41755019989796,0.021179900038987398,224.6796597999055,[0.1648148148148148],[0.48703703703703705],[1],[0],[0],[3.2727030999958515],['target'],01,001,2024-10-04_11h28.19.708,VisualSearch,2024.1.5,None,2024-10-04 11h28.39.760062 +0530,
90,0,90,0,224.75518099986948,,224.6859933999367,10,224.75518099986948,224.75518099986948,0.05522949993610382,228.60987260006368,[0.39814814814814814],[-0.1398148148148148],[1],[0],[0],[3.869264299981296],['target'],01,001,2024-10-04_11h28.19.708,VisualSearch,2024.1.5,None,2024-10-04 11h28.39.760062 +0530,
91,0,91,0,228.6589524000883,,228.61573669989593,5,228.6589524000883,228.6589524000883,0.029788700165227056,230.45680699986406,[0.4648148148148148],[-0.42685185185185187],[1],[0],[0],[1.8119084001518786],['target'],01,001,2024-10-04_11h28.19.708,VisualSearch,2024.1.5,None,2024-10-04 11h28.39.760062 +0530,
92,0,92,0,230.50822529988363,,230.4635989998933,5,230.50822529988363,230.50822529988363,0.036141399992629886,232.42170609999448,[-0.09907407407407408],[-0.10648148148148148],[1],[0],[0],[1.9226299999281764],['target'],01,001,2024-10-04_11h28.19.708,VisualSearch,2024.1.5,None,2024-10-04 11h28.39.760062 +0530,
93,0,93,0,232.474008299876,,232.4280362999998,5,232.474008299876,232.474008299876,0.030256500001996756,234.85263659991324,[-0.26666666666666666],[0.4185185185185185],[1],[0],[0],[2.3948864999692887],['target'],01,001,2024-10-04_11h28.19.708,VisualSearch,2024.1.5,None,2024-10-04 11h28.39.760062 +0530,
94,0,94,0,234.9079209000338,,234.85912379994988,5,234.9079209000338,234.9079209000338,0.03368610003963113,238.03266899986193,[0.1925925925925926],[-0.2462962962962963],[1],[0],[0],[3.140730199869722],['target'],01,001,2024-10-04_11h28.19.708,VisualSearch,2024.1.5,None,2024-10-04 11h28.39.760062 +0530,
95,0,95,0,238.0857502000872,,238.0396114999894,5,238.0857502000872,238.0857502000872,0.030542799970135093,240.94680649996735,[-0.49907407407407406],[-0.4324074074074074],[1],[0],[0],[2.8777224000077695],['target'],01,001,2024-10-04_11h28.19.708,VisualSearch,2024.1.5,None,2024-10-04 11h28.39.760062 +0530,
96,0,96,0,240.98410869995132,,240.95121309999377,5,240.98410869995132,240.98410869995132,0.022638099966570735,243.64445280004293,[-0.004629629629629629],[0.26296296296296295],[1],[0],[0],[2.671268400037661],['target'],01,001,2024-10-04_11h28.19.708,VisualSearch,2024.1.5,None,2024-10-04 11h28.39.760062 +0530,
97,0,97,0,243.6974756999407,,243.65164369996637,5,243.6974756999407,243.6974756999407,0.03326420020312071,245.52690479997545,[-0.08055555555555556],[-0.1537037037037037],[1],[0],[0],[1.8427398998755962],['target'],01,001,2024-10-04_11h28.19.708,VisualSearch,2024.1.5,None,2024-10-04 11h28.39.760062 +0530,
98,0,98,0,245.5814565999899,,245.5336233000271,5,245.5814565999899,245.5814565999899,0.033857000060379505,248.88975890004076,[0.3972222222222222],[-0.43333333333333335],[1],[0],[0],[3.323182199848816],['target'],01,001,2024-10-04_11h28.19.708,VisualSearch,2024.1.5,None,2024-10-04 11h28.39.760062 +0530,
99,0,99,0,248.94056260003708,,248.89684569998644,5,248.94056260003708,248.94056260003708,0.031220499891787767,250.7886747000739,[0.31666666666666665],[-0.1537037037037037],[1],[0],[0],[1.861243899911642],['target'],01,001,2024-10-04_11h28.19.708,VisualSearch,2024.1.5,None,2024-10-04 11h28.39.760062 +0530,
100,0,100,0,250.85307309986092,,250.7993035998661,10,250.85307309986092,250.85307309986092,0.04040029994212091,253.80123710003681,[-0.4074074074074074],[0.17222222222222222],[1],[0],[0],[2.9627270000055432],['target'],01,001,2024-10-04_11h28.19.708,VisualSearch,2024.1.5,None,2024-10-04 11h28.39.760062 +0530,
101,0,101,0,253.83797949994914,,253.8055968999397,5,253.83797949994914,253.83797949994914,0.02137360000051558,256.93263889988884,[0.42777777777777776],[-0.34629629629629627],[1],[0],[0],[3.1057470999658108],['target'],01,001,2024-10-04_11h28.19.708,VisualSearch,2024.1.5,None,2024-10-04 11h28.39.760062 +0530,
102,0,102,0,256.9872173999902,,256.939011399867,5,256.9872173999902,256.9872173999902,0.03470019996166229,258.9468727998901,[-0.007407407407407408],[-0.09166666666666666],[1],[0],[0],[1.9739290999714285],['target'],01,001,2024-10-04_11h28.19.708,VisualSearch,2024.1.5,None,2024-10-04 11h28.39.760062 +0530,
103,0,103,0,259.0423314999789,,258.9539331998676,10,259.0423314999789,259.0423314999789,0.06406210013665259,260.97752629988827,[0.18981481481481483],[-0.14444444444444443],[1],[0],[0],[1.9607930001802742],['target'],01,001,2024-10-04_11h28.19.708,VisualSearch,2024.1.5,None,2024-10-04 11h28.39.760062 +0530,
104,0,104,0,261.04657160001807,,260.9836583000142,10,261.04657160001807,261.04657160001807,0.04802610003389418,263.0264145999681,[-0.3111111111111111],[-0.15833333333333333],[1],[0],[0],[1.9956811000593007],['target'],01,001,2024-10-04_11h28.19.708,VisualSearch,2024.1.5,None,2024-10-04 11h28.39.760062 +0530,
105,0,105,0,263.08829590003006,,263.03091949992813,10,263.08829590003006,263.08829590003006,0.038512600120157,264.7742542999331,[-0.03611111111111111],[0.10092592592592593],[1],[0],[0],[1.7055023000575602],['target'],01,001,2024-10-04_11h28.19.708,VisualSearch,2024.1.5,None,2024-10-04 11h28.39.760062 +0530,
106,0,106,0,264.8450191000011,,264.77840099995956,10,264.8450191000011,264.8450191000011,0.04469359992071986,267.45513519993983,[-0.44814814814814813],[-0.4324074074074074],[1],[0],[0],[2.632442600093782],['target'],01,001,2024-10-04_11h28.19.708,VisualSearch,2024.1.5,None,2024-10-04 11h28.39.760062 +0530,
107,0,107,0,267.4943170999177,,267.4592597000301,5,267.4943170999177,267.4943170999177,0.023850899888202548,269.78662259993143,[0.21296296296296297],[0.1574074074074074],[1],[0],[0],[2.3037331998348236],['target'],01,001,2024-10-04_11h28.19.708,VisualSearch,2024.1.5,None,2024-10-04 11h28.39.760062 +0530,
108,0,108,0,269.86684589996,,269.79329409985803,10,269.86684589996,269.86684589996,0.0597907998599112,272.5333422999829,[0.05092592592592592],[-0.48703703703703705],[1],[0],[0],[2.681345700053498],['target'],01,001,2024-10-04_11h28.19.708,VisualSearch,2024.1.5,None,2024-10-04 11h28.39.760062 +0530,
109,0,109,0,272.56706149992533,,272.5374634999316,5,272.56706149992533,272.56706149992533,0.019654500065371394,274.5996914000716,[0.33055555555555555],[-0.12037037037037036],[1],[0],[0],[2.042695299955085],['target'],01,001,2024-10-04_11h28.19.708,VisualSearch,2024.1.5,None,2024-10-04 11h28.39.760062 +0530,
110,0,110,0,274.65144379995763,,274.60596579988487,5,274.65144379995763,274.65144379995763,0.031057899817824364,276.7469081999734,[-0.08333333333333333],[-0.007407407407407408],[1],[0],[0],[2.110543900169432],['target'],01,001,2024-10-04_11h28.19.708,VisualSearch,2024.1.5,None,2024-10-04 11h28.39.760062 +0530,
111,0,111,0,276.81919860001653,,276.7547802000772,10,276.81919860001653,276.81919860001653,0.0496033001691103,281.34187390003353,[-0.425],[0.43703703703703706],[1],[0],[0],[4.538449400104582],['target'],01,001,2024-10-04_11h28.19.708,VisualSearch,2024.1.5,None,2024-10-04 11h28.39.760062 +0530,
112,0,112,0,281.40813779993914,,281.34627270000055,10,281.40813779993914,281.40813779993914,0.04586370009928942,284.4565574999433,[0.48148148148148145],[-0.13796296296296295],[1],[0],[0],[3.064572500064969],['target'],01,001,2024-10-04_11h28.19.708,VisualSearch,2024.1.5,None,2024-10-04 11h28.39.760062 +0530,
113,0,113,0,284.4879109999165,,284.4604613999836,5,284.4879109999165,284.4879109999165,0.01833200012333691,287.1204129999969,[0.19537037037037036],[-0.48333333333333334],[1],[0],[0],[2.641627199947834],['target'],01,001,2024-10-04_11h28.19.708,VisualSearch,2024.1.5,None,2024-10-04 11h28.39.760062 +0530,
114,0,114,0,287.1734597000759,,287.1268960000016,5,287.1734597000759,287.1734597000759,0.03172120009548962,289.285789599875,[0.40925925925925927],[-0.11018518518518519],[1],[0],[0],[2.1276028000283986],['target'],01,001,2024-10-04_11h28.19.708,VisualSearch,2024.1.5,None,2024-10-04 11h28.39.760062 +0530,
115,0,115,0,289.3774162000045,,289.2930584999267,10,289.3774162000045,289.3774162000045,0.059464900055900216,291.4152980998624,[0.06018518518518518],[-0.4425925925925926],[1],[0],[0],[2.0640549999661744],['target'],01,001,2024-10-04_11h28.19.708,VisualSearch,2024.1.5,None,2024-10-04 11h28.39.760062 +0530,
116,0,116,0,291.4558226999361,,291.4190638998989,10,291.4558226999361,291.4558226999361,0.026323999976739287,293.6805872998666,[-0.32314814814814813],[0.08333333333333333],[1],[0],[0],[2.235318799968809],['target'],01,001,2024-10-04_11h28.19.708,VisualSearch,2024.1.5,None,2024-10-04 11h28.39.760062 +0530,
117,0,117,0,293.72109310003,,293.6847471999936,5,293.72109310003,293.72109310003,0.021158100105822086,295.67887929989956,[-0.125],[-0.2111111111111111],[1],[0],[0],[1.973157900152728],['target'],01,001,2024-10-04_11h28.19.708,VisualSearch,2024.1.5,None,2024-10-04 11h28.39.760062 +0530,
118,0,118,0,295.76219619996846,,295.6863758000545,10,295.76219619996846,295.76219619996846,0.06387769989669323,298.6123542999849,[0.2972222222222222],[0.24444444444444444],[1],[0],[0],[2.8637097000610083],['target'],01,001,2024-10-04_11h28.19.708,VisualSearch,2024.1.5,None,2024-10-04 11h28.39.760062 +0530,
119,0,119,0,298.69137250003405,,298.61840819986537,10,298.69137250003405,298.69137250003405,0.049346699845045805,301.3901261999272,[-0.46296296296296297],[0.40555555555555556],[1],[0],[0],[2.723174399929121],['target'],01,001,2024-10-04_11h28.19.708,VisualSearch,2024.1.5,None,2024-10-04 11h28.39.760062 +0530,
120,0,120,0,301.4275839999318,,301.39423119998537,5,301.4275839999318,301.4275839999318,0.02194189978763461,304.00506210001186,[-0.004629629629629629],[-0.14629629629629629],[1],[0],[0],[2.5891201000194997],['target'],01,001,2024-10-04_11h28.19.708,VisualSearch,2024.1.5,None,2024-10-04 11h28.39.760062 +0530,
121,0,121,0,304.0586504000239,,304.0134695000015,5,304.0586504000239,304.0586504000239,0.030532199889421463,305.6530518999789,[-0.1712962962962963],[-0.1398148148148148],[1],[0],[0],[1.6099121000152081],['target'],01,001,2024-10-04_11h28.19.708,VisualSearch,2024.1.5,None,2024-10-04 11h28.39.760062 +0530,
122,0,122,0,305.69063249998726,,305.6571551999077,5,305.69063249998726,305.69063249998726,0.021051200106739998,308.268398999935,[0.3287037037037037],[0.25833333333333336],[1],[0],[0],[2.59022430004552],['target'],01,001,2024-10-04_11h28.19.708,VisualSearch,2024.1.5,None,2024-10-04 11h28.39.760062 +0530,
123,0,123,0,308.3398525000084,,308.27477649995126,10,308.3398525000084,308.3398525000084,0.0514448001049459,310.46447960007936,[0.3990740740740741],[0.0787037037037037],[1],[0],[0],[2.1393331999424845],['target'],01,001,2024-10-04_11h28.19.708,VisualSearch,2024.1.5,None,2024-10-04 11h28.39.760062 +0530,
124,0,124,0,310.49923629988916,,310.46850540000014,5,310.49923629988916,310.49923629988916,0.017156600020825863,312.0973221999593,[-0.3814814814814815],[-0.22962962962962963],[1],[0],[0],[1.6118071000091732],['target'],01,001,2024-10-04_11h28.19.708,VisualSearch,2024.1.5,None,2024-10-04 11h28.39.760062 +0530,
125,0,125,0,312.19210099987686,,312.1074471999891,10,312.19210099987686,312.19210099987686,0.06361990002915263,313.94531550002284,[-0.25277777777777777],[0.006481481481481481],[1],[0],[0],[1.7762655999977142],['target'],01,001,2024-10-04_11h28.19.708,VisualSearch,2024.1.5,None,2024-10-04 11h28.39.760062 +0530,
126,0,126,0,313.99577379995026,,313.9494286000263,10,313.99577379995026,313.99577379995026,0.03778290003538132,316.193054900039,[-0.1259259259259259],[-0.412962962962963],[1],[0],[0],[2.206305200001225],['target'],01,001,2024-10-04_11h28.19.708,VisualSearch,2024.1.5,None,2024-10-04 11h28.39.760062 +0530,
127,0,127,0,316.26150509994477,,316.19896250008605,10,316.26150509994477,316.26150509994477,0.04401580011472106,318.05749349994585,[0.053703703703703705],[-0.41203703703703703],[1],[0],[0],[1.8154464000836015],['target'],01,001,2024-10-04_11h28.19.708,VisualSearch,2024.1.5,None,2024-10-04 11h28.39.760062 +0530,
128,0,128,0,318.09413839993067,,318.0622147000395,5,318.09413839993067,318.09413839993067,0.020676500163972378,322.0046854999382,[-0.21481481481481482],[0.32685185185185184],[1],[0],[0],[3.9223046000115573],['target'],01,001,2024-10-04_11h28.19.708,VisualSearch,2024.1.5,None,2024-10-04 11h28.39.760062 +0530,
129,0,129,0,322.05559809994884,,322.01095460006036,5,322.05559809994884,322.05559809994884,0.03047090000472963,323.88658589986153,[-0.4324074074074074],[0.1648148148148148],[1],[0],[0],[1.8459202002268285],['target'],01,001,2024-10-04_11h28.19.708,VisualSearch,2024.1.5,None,2024-10-04 11h28.39.760062 +0530,
130,0,130,0,323.94302450004034,,323.89598999987356,5,323.94302450004034,323.94302450004034,0.03287820005789399,326.4176288000308,[0.33611111111111114],[-0.22592592592592592],[1],[0],[0],[2.4902395999524742],['target'],01,001,2024-10-04_11h28.19.708,VisualSearch,2024.1.5,None,2024-10-04 11h28.39.760062 +0530,
131,0,131,0,326.50211229990236,,326.4240776998922,10,326.50211229990236,326.50211229990236,0.05696179997175932,332.3443626998924,[-0.07685185185185185],[0.22870370370370371],[1],[0],[0],[5.864029299933463],['target'],01,001,2024-10-04_11h28.19.708,VisualSearch,2024.1.5,None,2024-10-04 11h28.39.760062 +0530,
132,0,132,0,332.38631289987825,,332.3503099998925,5,332.38631289987825,332.38631289987825,0.02739149983972311,334.2599998000078,[-0.2740740740740741],[0.41203703703703703],[1],[0],[0],[1.8829166002105922],['target'],01,001,2024-10-04_11h28.19.708,VisualSearch,2024.1.5,None,2024-10-04 11h28.39.760062 +0530,
133,0,133,0,334.30966109992005,,334.26697780005634,5,334.30966109992005,334.30966109992005,0.03192079998552799,338.32308460003696,[-0.1259259259259259],[0.47314814814814815],[1],[0],[0],[4.024606599938124],['target'],01,001,2024-10-04_11h28.19.708,VisualSearch,2024.1.5,None,2024-10-04 11h28.39.760062 +0530,
134,0,134,0,338.39555100002326,,338.329402100062,10,338.39555100002326,338.39555100002326,0.05210609990172088,340.9193984000012,[0.2],[0.37962962962962965],[1],[0],[0],[2.538910999894142],['target'],01,001,2024-10-04_11h28.19.708,VisualSearch,2024.1.5,None,2024-10-04 11h28.39.760062 +0530,
135,0,135,0,340.9541446000803,,340.92288129986264,5,340.9541446000803,340.9541446000803,0.020877700066193938,343.65118609997444,[0.4759259259259259],[-0.2564814814814815],[1],[0],[0],[2.7074734000489116],['target'],01,001,2024-10-04_11h28.19.708,VisualSearch,2024.1.5,None,2024-10-04 11h28.39.760062 +0530,
136,0,136,0,343.70620519993827,,343.6580825999845,5,343.70620519993827,343.70620519993827,0.03396420017816126,346.58056619996205,[-0.07222222222222222],[0.41574074074074074],[1],[0],[0],[2.8895608000457287],['target'],01,001,2024-10-04_11h28.19.708,VisualSearch,2024.1.5,None,2024-10-04 11h28.39.760062 +0530,
137,0,137,0,346.6159268999472,,346.5846591000445,5,346.6159268999472,346.6159268999472,0.020449799951165915,348.3299414999783,[-0.10833333333333334],[0.4861111111111111],[1],[0],[0],[1.7250429999548942],['target'],01,001,2024-10-04_11h28.19.708,VisualSearch,2024.1.5,None,2024-10-04 11h28.39.760062 +0530,
138,0,138,0,348.40261560003273,,348.33811839995906,10,348.40261560003273,348.40261560003273,0.049615100026130676,350.6605038999114,[0.21481481481481482],[0.3287037037037037],[1],[0],[0],[2.27386900014244],['target'],01,001,2024-10-04_11h28.19.708,VisualSearch,2024.1.5,None,2024-10-04 11h28.39.760062 +0530,
139,0,139,0,350.7201600000262,,350.66456889989786,10,350.7201600000262,350.7201600000262,0.03919899999164045,352.9412704000715,[-0.23055555555555557],[0.25833333333333336],[1],[0],[0],[2.2380747999995947],['target'],01,001,2024-10-04_11h28.19.708,VisualSearch,2024.1.5,None,2024-10-04 11h28.39.760062 +0530,
140,0,140,0,352.99243209999986,,352.94440190005116,10,352.99243209999986,352.99243209999986,0.030736900167539716,354.7235131000634,[0.07685185185185185],[0.3101851851851852],[1],[0],[0],[1.7485423998441547],['target'],01,001,2024-10-04_11h28.19.708,VisualSearch,2024.1.5,None,2024-10-04 11h28.39.760062 +0530,
141,0,141,0,354.79346429998986,,354.7277927000541,10,354.79346429998986,354.79346429998986,0.04366810014471412,356.8050102000125,[-0.25555555555555554],[-0.06296296296296296],[1],[0],[0],[2.033956400118768],['target'],01,001,2024-10-04_11h28.19.708,VisualSearch,2024.1.5,None,2024-10-04 11h28.39.760062 +0530,
142,0,142,0,356.835393599933,,356.8085805999581,5,356.835393599933,356.835393599933,0.017522400012239814,359.1370486000087,[-0.09166666666666666],[-0.24722222222222223],[1],[0],[0],[2.3108828000258654],['target'],01,001,2024-10-04_11h28.19.708,VisualSearch,2024.1.5,None,2024-10-04 11h28.39.760062 +0530,
143,0,143,0,359.2058141999878,,359.14430040004663,10,359.2058141999878,359.2058141999878,0.04645150015130639,361.1012116000056,[-0.08703703703703704],[-0.05185185185185185],[1],[0],[0],[1.9114210999105126],['target'],01,001,2024-10-04_11h28.19.708,VisualSearch,2024.1.5,None,2024-10-04 11h28.39.760062 +0530,
144,0,144,0,361.16707129986025,,361.105594499968,10,361.16707129986025,361.16707129986025,0.039578599855303764,362.9749912000261,[-0.04351851851851852],[-0.07592592592592592],[1],[0],[0],[1.8300854000262916],['target'],01,001,2024-10-04_11h28.19.708,VisualSearch,2024.1.5,None,2024-10-04 11h28.39.760062 +0530,
145,0,145,0,363.039998000022,,362.98161270003766,10,363.039998000022,363.039998000022,0.04370709997601807,366.097472500056,[-0.19166666666666668],[0.10185185185185185],[1],[0],[0],[3.072950500063598],['target'],01,001,2024-10-04_11h28.19.708,VisualSearch,2024.1.5,None,2024-10-04 11h28.39.760062 +0530,
146,0,146,0,366.15103449998423,,366.1011864000466,10,366.15103449998423,366.15103449998423,0.035067199962213635,367.91126920003444,[-0.325],[-0.2101851851851852],[1],[0],[0],[1.7751235000323504],['target'],01,001,2024-10-04_11h28.19.708,VisualSearch,2024.1.5,None,2024-10-04 11h28.39.760062 +0530,
147,0,147,0,367.94094090000726,,367.91460080002435,5,367.94094090000726,367.94094090000726,0.01709199999459088,369.72725989995524,[-0.18518518518518517],[-0.3861111111111111],[1],[0],[0],[1.7953262000810355],['target'],01,001,2024-10-04_11h28.19.708,VisualSearch,2024.1.5,None,2024-10-04 11h28.39.760062 +0530,
148,0,148,0,369.78131789993495,,369.73395080002956,5,369.78131789993495,369.78131789993495,0.03282799990847707,372.0575651000254,[-0.35648148148148145],[0.2796296296296296],[1],[0],[0],[2.2916055999230593],['target'],01,001,2024-10-04_11h28.19.708,VisualSearch,2024.1.5,None,2024-10-04 11h28.39.760062 +0530,
149,0,149,0,372.11295609991066,,372.0647410999518,5,372.11295609991066,372.11295609991066,0.031896299915388227,373.7226603999734,[-0.44907407407407407],[0.2222222222222222],[1],[0],[0],[1.6271806000731885],['target'],01,001,2024-10-04_11h28.19.708,VisualSearch,2024.1.5,None,2024-10-04 11h28.39.760062 +0530,
150,0,150,0,373.81624080007896,,373.7295860000886,10,373.81624080007896,373.81624080007896,0.06347139994613826,376.4513856000267,[0.2675925925925926],[-0.1824074074074074],[1],[0],[0],[2.6594390999525785],['target'],01,001,2024-10-04_11h28.19.708,VisualSearch,2024.1.5,None,2024-10-04 11h28.39.760062 +0530,
151,0,151,0,376.50226809992455,,376.4575594998896,5,376.50226809992455,376.50226809992455,0.031066899886354804,378.93511569988914,[0.125],[0.2916666666666667],[1],[0],[0],[2.4469741999637336],['target'],01,001,2024-10-04_11h28.19.708,VisualSearch,2024.1.5,None,2024-10-04 11h28.39.760062 +0530,
152,0,152,0,379.00418139994144,,378.941619399935,10,379.00418139994144,379.00418139994144,0.04912620014511049,381.49979240004905,[-0.21851851851851853],[0.3055555555555556],[1],[0],[0],[2.5096440999768674],['target'],01,001,2024-10-04_11h28.19.708,VisualSearch,2024.1.5,None,2024-10-04 11h28.39.760062 +0530,
153,0,153,0,381.5473165998701,,381.50596009986475,5,381.5473165998701,381.5473165998701,0.03036720003001392,383.41364430007525,[-0.4101851851851852],[0.13240740740740742],[1],[0],[0],[1.8780290998984128],['target'],01,001,2024-10-04_11h28.19.708,VisualSearch,2024.1.5,None,2024-10-04 11h28.39.760062 +0530,
154,0,154,0,383.50328149995767,,383.42106499988586,10,383.50328149995767,383.50328149995767,0.06191059993579984,386.3937500999309,[-0.003703703703703704],[-0.262037037037037],[1],[0],[0],[2.9119281000457704],['target'],01,001,2024-10-04_11h28.19.708,VisualSearch,2024.1.5,None,2024-10-04 11h28.39.760062 +0530,
155,0,155,0,386.42866540001705,,386.3979374000337,5,386.42866540001705,386.42866540001705,0.021425000159069896,388.90824800007977,[0.16944444444444445],[0.28888888888888886],[1],[0],[0],[2.489357399987057],['target'],01,001,2024-10-04_11h28.19.708,VisualSearch,2024.1.5,None,2024-10-04 11h28.39.760062 +0530,
156,0,156,0,388.96135760005563,,388.9123297999613,10,388.96135760005563,388.96135760005563,0.03771160007454455,391.8218547999859,[0.024074074074074074],[-0.06296296296296296],[1],[0],[0],[2.8723200000822544],['target'],01,001,2024-10-04_11h28.19.708,VisualSearch,2024.1.5,None,2024-10-04 11h28.39.760062 +0530,
157,0,157,0,391.8572106999345,,391.8259878999088,5,391.8572106999345,391.8572106999345,0.0203662000130862,393.25433639995754,[-0.04351851851851852],[-0.31574074074074077],[1],[0],[0],[1.4081920001190156],['target'],01,001,2024-10-04_11h28.19.708,VisualSearch,2024.1.5,None,2024-10-04 11h28.39.760062 +0530,
158,0,158,0,393.34455040004104,,393.26173050003126,10,393.34455040004104,393.34455040004104,0.0621416000649333,395.7006403999403,[0.2972222222222222],[-0.3509259259259259],[1],[0],[0],[2.3775581000372767],['target'],01,001,2024-10-04_11h28.19.708,VisualSearch,2024.1.5,None,2024-10-04 11h28.39.760062 +0530,
159,0,159,0,395.73449780000374,,395.70443819998764,5,395.73449780000374,395.73449780000374,0.01741139986552298,397.6170810998883,[-0.2722222222222222],[-0.23981481481481481],[1],[0],[0],[1.8953251000493765],['target'],01,001,2024-10-04_11h28.19.708,VisualSearch,2024.1.5,None,2024-10-04 11h28.39.760062 +0530,
160,0,160,0,397.8526093000546,,397.6240983000025,10,397.8526093000546,397.8526093000546,0.20159119996242225,399.3654970000498,[-0.16666666666666666],[0.27037037037037037],[1],[0],[0],[1.5410126999486238],['target'],01,001,2024-10-04_11h28.19.708,VisualSearch,2024.1.5,None,2024-10-04 11h28.39.760062 +0530,
161,0,161,0,399.4339584999252,,399.36984890000895,10,399.4339584999252,399.4339584999252,0.047185099916532636,401.68149430002086,[0.32685185185185184],[-0.47314814814814815],[1],[0],[0],[2.264690099982545],['target'],01,001,2024-10-04_11h28.19.708,VisualSearch,2024.1.5,None,2024-10-04 11h28.39.760062 +0530,
162,0,162,0,401.720259899972,,401.6879193999339,5,401.720259899972,401.720259899972,0.02390900021418929,403.5290488000028,[-0.037037037037037035],[-0.4740740740740741],[1],[0],[0],[1.8178525001276284],['target'],01,001,2024-10-04_11h28.19.708,VisualSearch,2024.1.5,None,2024-10-04 11h28.39.760062 +0530,
163,0,163,0,403.59924599993974,,403.53540829988196,10,403.59924599993974,403.59924599993974,0.04937699995934963,407.1739725000225,[0.3287037037037037],[0.4351851851851852],[1],[0],[0],[3.5901794999372214],['target'],01,001,2024-10-04_11h28.19.708,VisualSearch,2024.1.5,None,2024-10-04 11h28.39.760062 +0530,
164,0,164,0,407.24786589993164,,407.1783117998857,10,407.24786589993164,407.24786589993164,0.04749909997917712,409.88911810005084,[-0.36203703703703705],[-0.37592592592592594],[1],[0],[0],[2.6637723001185805],['target'],01,001,2024-10-04_11h28.19.708,VisualSearch,2024.1.5,None,2024-10-04 11h28.39.760062 +0530,
165,0,165,0,409.93115219986066,,409.8942704999354,5,409.93115219986066,409.93115219986066,0.02365670003928244,411.93736579990946,[-0.43333333333333335],[0.053703703703703705],[1],[0],[0],[2.0201052001211792],['target'],01,001,2024-10-04_11h28.19.708,VisualSearch,2024.1.5,None,2024-10-04 11h28.39.760062 +0530,
166,0,166,0,411.9947742000222,,411.9441772000864,5,411.9947742000222,411.9947742000222,0.030446700053289533,414.13517219992355,[-0.33055555555555555],[-0.3472222222222222],[1],[0],[0],[2.16132349986583],['target'],01,001,2024-10-04_11h28.19.708,VisualSearch,2024.1.5,None,2024-10-04 11h28.39.760062 +0530,
167,0,167,0,414.17776499991305,,414.14084029989317,5,414.17776499991305,414.17776499991305,0.01952849980443716,416.5998648998793,[0.014814814814814815],[0.20277777777777778],[1],[0],[0],[2.4394100999925286],['target'],01,001,2024-10-04_11h28.19.708,VisualSearch,2024.1.5,None,2024-10-04 11h28.39.760062 +0530,
168,0,168,0,416.64854010008276,,416.606352499919,5,416.64854010008276,416.64854010008276,0.03125480003654957,418.9136063000187,[0.001851851851851852],[0.35],[1],[0],[0],[2.2768383000511676],['target'],01,001,2024-10-04_11h28.19.708,VisualSearch,2024.1.5,None,2024-10-04 11h28.39.760062 +0530,
169,0,169,0,418.96424550004303,,418.92059240001254,5,418.96424550004303,418.96424550004303,0.02994309994392097,420.54521299991757,[-0.019444444444444445],[0.12222222222222222],[1],[0],[0],[1.5959469000808895],['target'],01,001,2024-10-04_11h28.19.708,VisualSearch,2024.1.5,None,2024-10-04 11h28.39.760062 +0530,
170,0,170,0,420.5766403998714,,420.54936229996383,5,420.5766403998714,420.5766403998714,0.02007999992929399,422.92747480003163,[0.337037037037037],[0.0712962962962963],[1],[0],[0],[2.3579825998749584],['target'],01,001,2024-10-04_11h28.19.708,VisualSearch,2024.1.5,None,2024-10-04 11h28.39.760062 +0530,
171,0,171,0,423.02125940006226,,422.934312999947,10,423.02125940006226,423.02125940006226,0.06145120016299188,425.25730250007473,[0.2462962962962963],[0.11018518518518519],[1],[0],[0],[2.2625404000282288],['target'],01,001,2024-10-04_11h28.19.708,VisualSearch,2024.1.5,None,2024-10-04 11h28.39.760062 +0530,
172,0,172,0,425.31827609986067,,425.2616655998863,10,425.31827609986067,425.31827609986067,0.04223800008185208,427.5223473000806,[0.4740740740740741],[-0.18425925925925926],[1],[0],[0],[2.218875600025058],['target'],01,001,2024-10-04_11h28.19.708,VisualSearch,2024.1.5,None,2024-10-04 11h28.39.760062 +0530,
173,0,173,0,427.573543000035,,427.526509599993,10,427.573543000035,427.573543000035,0.03786799986846745,429.2879315998871,[0.2490740740740741],[-0.2462962962962963],[1],[0],[0],[1.724111300194636],['target'],01,001,2024-10-04_11h28.19.708,VisualSearch,2024.1.5,None,2024-10-04 11h28.39.760062 +0530,
174,0,174,0,429.3241224999074,,429.2906960998662,10,429.3241224999074,429.3241224999074,0.022543600061908364,432.41780330007896,[-0.023148148148148147],[-0.03425925925925926],[1],[0],[0],[3.1045719000976533],['target'],01,001,2024-10-04_11h28.19.708,VisualSearch,2024.1.5,None,2024-10-04 11h28.39.760062 +0530,
175,0,175,0,432.45250370004214,,432.4219331999775,5,432.45250370004214,432.45250370004214,0.020748700015246868,434.1831650000531,[-0.18703703703703703],[-0.22314814814814815],[1],[0],[0],[1.7406089000869542],['target'],01,001,2024-10-04_11h28.19.708,VisualSearch,2024.1.5,None,2024-10-04 11h28.39.760062 +0530,
176,0,176,0,434.2365083999466,,434.18972639995627,5,434.2365083999466,434.2365083999466,0.03074009995907545,436.29780160007067,[0.12962962962962962],[-0.07777777777777778],[1],[0],[0],[2.0782731999643147],['target'],01,001,2024-10-04_11h28.19.708,VisualSearch,2024.1.5,None,2024-10-04 11h28.39.760062 +0530,
177,0,177,0,436.37293439987116,,436.3044956000522,10,436.37293439987116,436.37293439987116,0.05020470009185374,437.89633550005965,[0.12685185185185185],[0.09907407407407408],[1],[0],[0],[1.542689599795267],['target'],01,001,2024-10-04_11h28.19.708,VisualSearch,2024.1.5,None,2024-10-04 11h28.39.760062 +0530,
178,0,178,0,437.94366530003026,,437.9004627999384,5,437.94366530003026,437.94366530003026,0.0280819998588413,440.47783300001174,[0.45925925925925926],[-0.04814814814814815],[1],[0],[0],[2.5492602000012994],['target'],01,001,2024-10-04_11h28.19.708,VisualSearch,2024.1.5,None,2024-10-04 11h28.39.760062 +0530,
179,0,179,0,440.53316550003365,,440.48932839999907,5,440.53316550003365,440.53316550003365,0.03507870016619563,442.94276240002364,[-0.05462962962962963],[0.25277777777777777],[1],[0],[0],[2.420069099869579],['target'],01,001,2024-10-04_11h28.19.708,VisualSearch,2024.1.5,None,2024-10-04 11h28.39.760062 +0530,
180,0,180,0,442.9970678000245,,442.9491880000569,5,442.9970678000245,442.9970678000245,0.03296269988641143,445.158063699957,[-0.4111111111111111],[-0.25462962962962965],[1],[0],[0],[2.176400300115347],['target'],01,001,2024-10-04_11h28.19.708,VisualSearch,2024.1.5,None,2024-10-04 11h28.39.760062 +0530,
181,0,181,0,445.2113981998991,,445.1686708999332,5,445.2113981998991,445.2113981998991,0.03053399990312755,446.8546223999001,[0.10277777777777777],[0.06851851851851852],[1],[0],[0],[1.6562306999694556],['target'],01,001,2024-10-04_11h28.19.708,VisualSearch,2024.1.5,None,2024-10-04 11h28.39.760062 +0530,
182,0,182,0,446.90532470005564,,446.8611965999007,5,446.90532470005564,446.90532470005564,0.030156200053170323,448.95215520006604,[0.48055555555555557],[-0.32037037037037036],[1],[0],[0],[2.0616600001230836],['target'],01,001,2024-10-04_11h28.19.708,VisualSearch,2024.1.5,None,2024-10-04 11h28.39.760062 +0530,
183,0,183,0,449.01884220005013,,448.9565590999555,10,449.01884220005013,449.01884220005013,0.041475299978628755,451.7322339999955,[0.4648148148148148],[-0.21481481481481482],[1],[0],[0],[2.734769699862227],['target'],01,001,2024-10-04_11h28.19.708,VisualSearch,2024.1.5,None,2024-10-04 11h28.39.760062 +0530,
184,0,184,0,451.77120999991894,,451.73661260004155,5,451.77120999991894,451.77120999991894,0.02206539991311729,453.2992012000177,[-0.13055555555555556],[-0.03333333333333333],[1],[0],[0],[1.540624599903822],['target'],01,001,2024-10-04_11h28.19.708,VisualSearch,2024.1.5,None,2024-10-04 11h28.39.760062 +0530,
185,0,185,0,453.3997718000319,,453.3066960000433,10,453.3997718000319,453.3997718000319,0.06653450010344386,456.0306327000726,[0.39166666666666666],[-0.4101851851851852],[1],[0],[0],[2.658702899934724],['target'],01,001,2024-10-04_11h28.19.708,VisualSearch,2024.1.5,None,2024-10-04 11h28.39.760062 +0530,
186,0,186,0,456.0795833999291,,456.03479829989374,10,456.0795833999291,456.0795833999291,0.03335719997994602,459.6345921000466,[0.11851851851851852],[0.21203703703703702],[1],[0],[0],[3.566659100120887],['target'],01,001,2024-10-04_11h28.19.708,VisualSearch,2024.1.5,None,2024-10-04 11h28.39.760062 +0530,
187,0,187,0,459.678395899944,,459.6410332999658,5,459.678395899944,459.678395899944,0.027610700111836195,463.17264280002564,[-0.020370370370370372],[0.42314814814814816],[1],[0],[0],[3.504905799869448],['target'],01,001,2024-10-04_11h28.19.708,VisualSearch,2024.1.5,None,2024-10-04 11h28.39.760062 +0530,
188,0,188,0,463.22964329994284,,463.18038360006176,5,463.22964329994284,463.22964329994284,0.033131400123238564,465.80352359986864,[-0.2972222222222222],[-0.4101851851851852],[1],[0],[0],[2.5908494000323117],['target'],01,001,2024-10-04_11h28.19.708,VisualSearch,2024.1.5,None,2024-10-04 11h28.39.760062 +0530,
189,0,189,0,465.87423869990744,,465.8106505998876,10,465.87423869990744,465.87423869990744,0.050309899961575866,467.6178182999138,[0.13796296296296295],[-0.009259259259259259],[1],[0],[0],[1.7578658000566065],['target'],01,001,2024-10-04_11h28.19.708,VisualSearch,2024.1.5,None,2024-10-04 11h28.39.760062 +0530,
190,0,190,0,467.6653477998916,,467.62416599993594,5,467.6653477998916,467.6653477998916,0.027915900107473135,469.884177000029,[-0.36574074074074076],[-0.36203703703703705],[1],[0],[0],[2.23151610000059],['target'],01,001,2024-10-04_11h28.19.708,VisualSearch,2024.1.5,None,2024-10-04 11h28.39.760062 +0530,
191,0,191,0,469.9243604000658,,469.8889176999219,5,469.9243604000658,469.9243604000658,0.023658799938857555,471.78084699995816,[0.06759259259259259],[0.40370370370370373],[1],[0],[0],[1.8686729001346976],['target'],01,001,2024-10-04_11h28.19.708,VisualSearch,2024.1.5,None,2024-10-04 11h28.39.760062 +0530,
192,0,192,0,471.8346094000153,,471.7876909999177,5,471.8346094000153,471.8346094000153,0.02899110014550388,474.52864430006593,[-0.3148148148148148],[-0.18518518518518517],[1],[0],[0],[2.712612699950114],['target'],01,001,2024-10-04_11h28.19.708,VisualSearch,2024.1.5,None,2024-10-04 11h28.39.760062 +0530,
193,0,193,0,474.5981626000721,,474.5349826000165,10,474.5981626000721,474.5981626000721,0.050268799997866154,477.40974799986,[0.12685185185185185],[0.4425925925925926],[1],[0],[0],[2.8251740001142025],['target'],01,001,2024-10-04_11h28.19.708,VisualSearch,2024.1.5,None,2024-10-04 11h28.39.760062 +0530,
194,0,194,0,477.4804348000325,,477.4157652000431,10,477.4804348000325,477.4804348000325,0.05055489996448159,479.5064284999389,[-0.36944444444444446],[0.25277777777777777],[1],[0],[0],[2.0409587000031024],['target'],01,001,2024-10-04_11h28.19.708,VisualSearch,2024.1.5,None,2024-10-04 11h28.39.760062 +0530,
195,0,195,0,479.5679554999806,,479.5105703000445,10,479.5679554999806,479.5679554999806,0.042400000151246786,481.4717395999469,[0.175],[0.3],[1],[0],[0],[1.9192619000095874],['target'],01,001,2024-10-04_11h28.19.708,VisualSearch,2024.1.5,None,2024-10-04 11h28.39.760062 +0530,
196,0,196,0,481.5357717999723,,481.476134999888,10,481.5357717999723,481.5357717999723,0.03916609985753894,483.4279050999321,[-0.2657407407407407],[0.44907407407407407],[1],[0],[0],[1.9128290999215096],['target'],01,001,2024-10-04_11h28.19.708,VisualSearch,2024.1.5,None,2024-10-04 11h28.39.760062 +0530,
197,0,197,0,483.4779721000232,,483.4339223999996,5,483.4779721000232,483.4779721000232,0.029312199912965298,486.35133760003373,[-0.11018518518518519],[-0.1824074074074074],[1],[0],[0],[2.8885852000676095],['target'],01,001,2024-10-04_11h28.19.708,VisualSearch,2024.1.5,None,2024-10-04 11h28.39.760062 +0530,
198,0,198,0,486.40544859995134,,486.35807779990137,5,486.40544859995134,486.40544859995134,0.03551900014281273,488.7661669999361,[-0.44722222222222224],[-0.325],[1],[0],[0],[2.3730619999114424],['target'],01,001,2024-10-04_11h28.19.708,VisualSearch,2024.1.5,None,2024-10-04 11h28.39.760062 +0530,
199,0,199,0,488.8106098000426,,488.77285549999215,5,488.8106098000426,488.8106098000426,0.028990899911150336,493.3779710000381,[-0.3388888888888889],[0.45185185185185184],[1],[0],[0],[4.576780299888924],['target'],01,001,2024-10-04_11h28.19.708,VisualSearch,2024.1.5,None,2024-10-04 11h28.39.760062 +0530,
