trials.thisRepN,trials.thisTrialN,trials.thisN,trials.thisIndex,thisRow.t,notes,trial.started,num_distr,fixation.started,target.started,mouse.started,trial.stopped,mouse.x,mouse.y,mouse.leftButton,mouse.midButton,mouse.rightButton,mouse.time,mouse.clicked_name,participant,session,date,expName,psychopyVersion,frameRate,expStart,
0,0,0,0,0.10707999998703599,,0.010875699983444065,10,0.10707999998703599,0.10707999998703599,0.07708919997094199,2.224426900036633,[-0.09074074074074075],[0.1287037037037037],[1],[0],[0],[2.146697900025174],['target'],02,001,2024-10-10_18h33.20.582,VisualSearch,2024.1.5,None,2024-10-10 18h34.08.104328 +0530,
1,0,1,0,2.2587840000051074,,2.2332366000046022,5,2.2587840000051074,2.2587840000051074,0.018030799983534962,3.789946799981408,[-0.044444444444444446],[-0.2490740740740741],[1],[0],[0],[1.5391457000514492],['target'],02,001,2024-10-10_18h33.20.582,VisualSearch,2024.1.5,None,2024-10-10 18h34.08.104328 +0530,
2,0,2,0,3.8890213000122458,,3.7967805999796838,10,3.8890213000122458,3.8890213000122458,0.06731789995683357,5.4097076000180095,[0.42685185185185187],[0.010185185185185186],[1],[0],[0],[1.5464142000419088],[],02,001,2024-10-10_18h33.20.582,VisualSearch,2024.1.5,None,2024-10-10 18h34.08.104328 +0530,
3,0,3,0,5.500360900012311,,5.415763900033198,10,5.500360900012311,5.500360900012311,0.06365219998406246,7.487208599981386,[-0.03611111111111111],[0.4546296296296296],[1],[0],[0],[2.008661999949254],['target'],02,001,2024-10-10_18h33.20.582,VisualSearch,2024.1.5,None,2024-10-10 18h34.08.104328 +0530,
4,0,4,0,7.534136600035708,,7.493327500007581,5,7.534136600035708,7.534136600035708,0.02628669998375699,9.152932800003327,[0.15555555555555556],[0.30648148148148147],[1],[0],[0],[1.6338416000362486],['target'],02,001,2024-10-10_18h33.20.582,VisualSearch,2024.1.5,None,2024-10-10 18h34.08.104328 +0530,
5,0,5,0,9.209326200012583,,9.159721000003628,5,9.209326200012583,9.209326200012583,0.0338311999803409,10.566975800029468,[-0.22962962962962963],[-0.06111111111111111],[1],[0],[0],[1.374171200033743],['target'],02,001,2024-10-10_18h33.20.582,VisualSearch,2024.1.5,None,2024-10-10 18h34.08.104328 +0530,
6,0,6,0,10.624693299992941,,10.575224800035357,5,10.624693299992941,10.624693299992941,0.034356400021351874,12.282208600023296,[-0.30833333333333335],[0.32685185185185184],[1],[0],[0],[1.6733887000009418],['target'],02,001,2024-10-10_18h33.20.582,VisualSearch,2024.1.5,None,2024-10-10 18h34.08.104328 +0530,
7,0,7,0,12.33723290002672,,12.289388100034557,5,12.33723290002672,12.33723290002672,0.03401750000193715,14.496222199988551,[0.3972222222222222],[-0.43796296296296294],[1],[0],[0],[2.1737725000130013],['target'],02,001,2024-10-10_18h33.20.582,VisualSearch,2024.1.5,None,2024-10-10 18h34.08.104328 +0530,
8,0,8,0,14.556308200000785,,14.504689200024586,5,14.556308200000785,14.556308200000785,0.034067399974446744,17.07701489998726,[-0.2675925925925926],[-0.4601851851851852],[1],[0],[0],[2.539055000001099],['target'],02,001,2024-10-10_18h33.20.582,VisualSearch,2024.1.5,None,2024-10-10 18h34.08.104328 +0530,
9,0,9,0,17.13800269999774,,17.08506800001487,5,17.13800269999774,17.13800269999774,0.035541400022339076,19.02438080002321,[-0.3138888888888889],[0.487962962962963],[1],[0],[0],[1.9049900000100024],['target'],02,001,2024-10-10_18h33.20.582,VisualSearch,2024.1.5,None,2024-10-10 18h34.08.104328 +0530,
10,0,10,0,19.04714249999961,,19.02665060001891,5,19.04714249999961,19.04714249999961,0.014397099963389337,21.206647099985275,[-0.49074074074074076],[0.09351851851851851],[1],[0],[0],[2.165463900018949],['target'],02,001,2024-10-10_18h33.20.582,VisualSearch,2024.1.5,None,2024-10-10 18h34.08.104328 +0530,
11,0,11,0,21.303786600008607,,21.21468889998505,10,21.303786600008607,21.303786600008607,0.06253439997090027,24.104111700027715,[0.475],[-0.16666666666666666],[1],[0],[0],[2.827854200033471],['target'],02,001,2024-10-10_18h33.20.582,VisualSearch,2024.1.5,None,2024-10-10 18h34.08.104328 +0530,
12,0,12,0,24.15558369999053,,24.111308499996085,5,24.15558369999053,24.15558369999053,0.029920400003902614,25.768649899982847,[0.014814814814814815],[0.06296296296296296],[1],[0],[0],[1.6288075000047684],['target'],02,001,2024-10-10_18h33.20.582,VisualSearch,2024.1.5,None,2024-10-10 18h34.08.104328 +0530,
13,0,13,0,25.824786200013477,,25.775038600026164,5,25.824786200013477,25.824786200013477,0.03236110002035275,27.91683430003468,[-0.2953703703703704],[0.14814814814814814],[1],[0],[0],[2.1102172999526374],['target'],02,001,2024-10-10_18h33.20.582,VisualSearch,2024.1.5,None,2024-10-10 18h34.08.104328 +0530,
14,0,14,0,27.95494999998482,,27.924095200025477,5,27.95494999998482,27.95494999998482,0.024050500011071563,30.115078300004825,[-0.10648148148148148],[-0.35462962962962963],[1],[0],[0],[2.1675573000102304],['target'],02,001,2024-10-10_18h33.20.582,VisualSearch,2024.1.5,None,2024-10-10 18h34.08.104328 +0530,
15,0,15,0,30.213192099996377,,30.123473400017247,10,30.213192099996377,30.213192099996377,0.06719410000368953,31.78412800002843,[-0.36018518518518516],[0.026851851851851852],[1],[0],[0],[1.5945572999771684],['target'],02,001,2024-10-10_18h33.20.582,VisualSearch,2024.1.5,None,2024-10-10 18h34.08.104328 +0530,
16,0,16,0,31.87741359998472,,31.790892500022892,10,31.87741359998472,31.87741359998472,0.06280960002914071,33.48582120001083,[-0.1037037037037037],[0.3861111111111111],[1],[0],[0],[1.6329766999697313],['target'],02,001,2024-10-10_18h33.20.582,VisualSearch,2024.1.5,None,2024-10-10 18h34.08.104328 +0530,
17,0,17,0,33.5860322000226,,33.49279839999508,10,33.5860322000226,33.5860322000226,0.06434029998490587,34.977263499982655,[-0.3925925925925926],[0.375],[1],[0],[0],[1.4210843999753706],['target'],02,001,2024-10-10_18h33.20.582,VisualSearch,2024.1.5,None,2024-10-10 18h34.08.104328 +0530,
18,0,18,0,35.04549659998156,,34.98464660003083,5,35.04549659998156,35.04549659998156,0.0528313999529928,36.792760199983604,[0.3212962962962963],[0.375],[1],[0],[0],[1.7559843999915756],['target'],02,001,2024-10-10_18h33.20.582,VisualSearch,2024.1.5,None,2024-10-10 18h34.08.104328 +0530,
19,0,19,0,36.85277160000987,,36.800739800033625,5,36.85277160000987,36.85277160000987,0.03617000003578141,38.9566252999939,[-0.022222222222222223],[-0.1537037037037037],[1],[0],[0],[2.121475099993404],['target'],02,001,2024-10-10_18h33.20.582,VisualSearch,2024.1.5,None,2024-10-10 18h34.08.104328 +0530,
20,0,20,0,39.01905970001826,,38.96436809998704,5,39.01905970001826,39.01905970001826,0.03874500002712011,40.28898730000947,[-0.14814814814814814],[-0.013888888888888888],[1],[0],[0],[1.2869905999978073],['target'],02,001,2024-10-10_18h33.20.582,VisualSearch,2024.1.5,None,2024-10-10 18h34.08.104328 +0530,
21,0,21,0,40.34588690003147,,40.296167900029104,5,40.34588690003147,40.34588690003147,0.03240590001223609,41.83778780000284,[0.3925925925925926],[0.37037037037037035],[1],[0],[0],[1.509981199982576],['target'],02,001,2024-10-10_18h33.20.582,VisualSearch,2024.1.5,None,2024-10-10 18h34.08.104328 +0530,
22,0,22,0,41.93477150000399,,41.84495940001216,10,41.93477150000399,41.93477150000399,0.06661939999321476,43.58493620000081,[-0.2972222222222222],[-0.10833333333333334],[1],[0],[0],[1.6742384000099264],['target'],02,001,2024-10-10_18h33.20.582,VisualSearch,2024.1.5,None,2024-10-10 18h34.08.104328 +0530,
23,0,23,0,43.639105800015386,,43.59197110001696,5,43.639105800015386,43.639105800015386,0.03195120004238561,44.86802739999257,[-0.3453703703703704],[0.10925925925925926],[1],[0],[0],[1.2452074000029825],['target'],02,001,2024-10-10_18h33.20.582,VisualSearch,2024.1.5,None,2024-10-10 18h34.08.104328 +0530,
24,0,24,0,44.97079320001649,,44.87615929997992,10,44.97079320001649,44.97079320001649,0.06914520001737401,46.42205290001584,[-0.22777777777777777],[-0.20092592592592592],[1],[0],[0],[1.4776219999766909],['target'],02,001,2024-10-10_18h33.20.582,VisualSearch,2024.1.5,None,2024-10-10 18h34.08.104328 +0530,
25,0,25,0,46.47294070001226,,46.427937000000384,5,46.47294070001226,46.47294070001226,0.03098169999429956,48.797515799989924,[-0.27314814814814814],[0.49722222222222223],[1],[0],[0],[2.3391860999981873],['target'],02,001,2024-10-10_18h33.20.582,VisualSearch,2024.1.5,None,2024-10-10 18h34.08.104328 +0530,
26,0,26,0,48.85433609999018,,48.80506029998651,5,48.85433609999018,48.85433609999018,0.03344700002344325,50.47965370002203,[0.05277777777777778],[0.15648148148148147],[1],[0],[0],[1.6417943999986164],['target'],02,001,2024-10-10_18h33.20.582,VisualSearch,2024.1.5,None,2024-10-10 18h34.08.104328 +0530,
27,0,27,0,50.536012099997606,,50.486261199985165,5,50.536012099997606,50.536012099997606,0.03285960003267974,51.87834500003373,[-0.19722222222222222],[0.24722222222222223],[1],[0],[0],[1.3598059000214562],['target'],02,001,2024-10-10_18h33.20.582,VisualSearch,2024.1.5,None,2024-10-10 18h34.08.104328 +0530,
28,0,28,0,51.94058520003455,,51.88633770000888,5,51.94058520003455,51.94058520003455,0.04083720000926405,54.22653960000025,[0.027777777777777776],[-0.19814814814814816],[1],[0],[0],[2.3000303999870084],['target'],02,001,2024-10-10_18h33.20.582,VisualSearch,2024.1.5,None,2024-10-10 18h34.08.104328 +0530,
29,0,29,0,54.32849749998422,,54.23461440001847,10,54.32849749998422,54.32849749998422,0.07123810000484809,55.53838739998173,[-0.15],[-0.11481481481481481],[1],[0],[0],[1.2336024000542238],['target'],02,001,2024-10-10_18h33.20.582,VisualSearch,2024.1.5,None,2024-10-10 18h34.08.104328 +0530,
30,0,30,0,55.63233589997981,,55.54553629999282,10,55.63233589997981,55.63233589997981,0.06150679994607344,56.99684929999057,[-0.028703703703703703],[-0.25833333333333336],[1],[0],[0],[1.3905111000058241],['target'],02,001,2024-10-10_18h33.20.582,VisualSearch,2024.1.5,None,2024-10-10 18h34.08.104328 +0530,
31,0,31,0,57.09585710003739,,57.00463450001553,10,57.09585710003739,57.09585710003739,0.06528839998645708,59.512209600012284,[0.4166666666666667],[0.15092592592592594],[1],[0],[0],[2.4430915999691933],['target'],02,001,2024-10-10_18h33.20.582,VisualSearch,2024.1.5,None,2024-10-10 18h34.08.104328 +0530,
32,0,32,0,59.56800020002993,,59.51951369998278,5,59.56800020002993,59.56800020002993,0.03319669998018071,61.3864176000352,[-0.1824074074074074],[0.1287037037037037],[1],[0],[0],[1.8348806000431068],['target'],02,001,2024-10-10_18h33.20.582,VisualSearch,2024.1.5,None,2024-10-10 18h34.08.104328 +0530,
33,0,33,0,61.44610100000864,,61.3942376000341,5,61.44610100000864,61.44610100000864,0.03483819996472448,63.0670020999969,[-0.20092592592592592],[-0.11296296296296296],[1],[0],[0],[1.63878580002347],['target'],02,001,2024-10-10_18h33.20.582,VisualSearch,2024.1.5,None,2024-10-10 18h34.08.104328 +0530,
34,0,34,0,63.16168249998009,,63.07412810000824,10,63.16168249998009,63.16168249998009,0.06451170000946149,67.14195690001361,[-0.025925925925925925],[0.28888888888888886],[1],[0],[0],[4.003915600012988],['target'],02,001,2024-10-10_18h33.20.582,VisualSearch,2024.1.5,None,2024-10-10 18h34.08.104328 +0530,
35,0,35,0,67.24383480002871,,67.14938140002778,10,67.24383480002871,67.24383480002871,0.0676804999820888,70.82449139998062,[0.04814814814814815],[0.24537037037037038],[1],[0],[0],[3.608225099975243],['target'],02,001,2024-10-10_18h33.20.582,VisualSearch,2024.1.5,None,2024-10-10 18h34.08.104328 +0530,
36,0,36,0,70.8765001000138,,70.83221349999076,5,70.8765001000138,70.8765001000138,0.03150610002921894,72.67590279999422,[-0.4462962962962963],[-0.04259259259259259],[1],[0],[0],[1.8126110999728553],['target'],02,001,2024-10-10_18h33.20.582,VisualSearch,2024.1.5,None,2024-10-10 18h34.08.104328 +0530,
37,0,37,0,72.78195899998536,,72.68426210002508,10,72.78195899998536,72.78195899998536,0.07066999998642132,74.87340480001876,[0.08981481481481482],[-0.33796296296296297],[1],[0],[0],[2.119541799998842],['target'],02,001,2024-10-10_18h33.20.582,VisualSearch,2024.1.5,None,2024-10-10 18h34.08.104328 +0530,
38,0,38,0,74.92828669998562,,74.88114210002823,5,74.92828669998562,74.92828669998562,0.032971000007819384,76.60501790000126,[-0.30925925925925923],[-0.24814814814814815],[1],[0],[0],[1.6920302000362426],['target'],02,001,2024-10-10_18h33.20.582,VisualSearch,2024.1.5,None,2024-10-10 18h34.08.104328 +0530,
39,0,39,0,76.7064322999795,,76.61304169998039,10,76.7064322999795,76.7064322999795,0.0673837999929674,78.7472323999973,[-0.4546296296296296],[0.09351851851851851],[1],[0],[0],[2.0675838999450207],['target'],02,001,2024-10-10_18h33.20.582,VisualSearch,2024.1.5,None,2024-10-10 18h34.08.104328 +0530,
40,0,40,0,78.84481720003532,,78.75582389999181,10,78.84481720003532,78.84481720003532,0.06563239998649806,80.06425420002779,[-0.29907407407407405],[0.44907407407407407],[1],[0],[0],[1.2439059000462294],['target'],02,001,2024-10-10_18h33.20.582,VisualSearch,2024.1.5,None,2024-10-10 18h34.08.104328 +0530,
41,0,41,0,80.16192169999704,,80.07157810003264,10,80.16192169999704,80.16192169999704,0.06623779999790713,81.46977710002102,[0.004629629629629629],[0.2777777777777778],[1],[0],[0],[1.3326390000293031],['target'],02,001,2024-10-10_18h33.20.582,VisualSearch,2024.1.5,None,2024-10-10 18h34.08.104328 +0530,
42,0,42,0,81.52310960000614,,81.47611430002144,5,81.52310960000614,81.52310960000614,0.030647799954749644,83.1987752999994,[0.4361111111111111],[-0.04722222222222222],[1],[0],[0],[1.6926154000102542],['target'],02,001,2024-10-10_18h33.20.582,VisualSearch,2024.1.5,None,2024-10-10 18h34.08.104328 +0530,
43,0,43,0,83.25313000002643,,83.20611570001347,5,83.25313000002643,83.25313000002643,0.030871500028297305,85.08041049999883,[-0.4666666666666667],[-0.13518518518518519],[1],[0],[0],[1.8440601999755017],['target'],02,001,2024-10-10_18h33.20.582,VisualSearch,2024.1.5,None,2024-10-10 18h34.08.104328 +0530,
44,0,44,0,85.18141730001662,,85.08822320000036,10,85.18141730001662,85.18141730001662,0.07135260000359267,87.92727729998296,[0.31296296296296294],[-0.41203703703703703],[1],[0],[0],[2.7685423999791965],['target'],02,001,2024-10-10_18h33.20.582,VisualSearch,2024.1.5,None,2024-10-10 18h34.08.104328 +0530,
45,0,45,0,87.98431329999585,,87.93483799998648,5,87.98431329999585,87.98431329999585,0.034836200007703155,90.02581930003362,[0.34814814814814815],[0.30648148148148147],[1],[0],[0],[2.056868600018788],['target'],02,001,2024-10-10_18h33.20.582,VisualSearch,2024.1.5,None,2024-10-10 18h34.08.104328 +0530,
46,0,46,0,90.08122860000003,,90.0331180000212,5,90.08122860000003,90.08122860000003,0.03351839998504147,91.90758860000642,[0.014814814814814815],[0.14444444444444443],[1],[0],[0],[1.8416416999534704],['target'],02,001,2024-10-10_18h33.20.582,VisualSearch,2024.1.5,None,2024-10-10 18h34.08.104328 +0530,
47,0,47,0,92.00610980001511,,91.91572679998353,10,92.00610980001511,92.00610980001511,0.06537780002690852,93.54278880002676,[0.175],[-0.13703703703703704],[1],[0],[0],[1.5628292000037618],['target'],02,001,2024-10-10_18h33.20.582,VisualSearch,2024.1.5,None,2024-10-10 18h34.08.104328 +0530,
48,0,48,0,93.638771500031,,93.55009979999159,10,93.638771500031,93.638771500031,0.06584290001774207,95.2982460000203,[0.030555555555555555],[0.09351851851851851],[1],[0],[0],[1.683544899977278],['target'],02,001,2024-10-10_18h33.20.582,VisualSearch,2024.1.5,None,2024-10-10 18h34.08.104328 +0530,
49,0,49,0,95.33869469998172,,95.30402320000576,5,95.33869469998172,95.33869469998172,0.024691400001756847,97.43586909997975,[0.24444444444444444],[-0.37777777777777777],[1],[0],[0],[2.1074626000481658],['target'],02,001,2024-10-10_18h33.20.582,VisualSearch,2024.1.5,None,2024-10-10 18h34.08.104328 +0530,
50,0,50,0,97.49031289998675,,97.44365410000319,5,97.49031289998675,97.49031289998675,0.031484799983445555,98.81797420000657,[0.025],[-0.16296296296296298],[1],[0],[0],[1.3435840999591164],['target'],02,001,2024-10-10_18h33.20.582,VisualSearch,2024.1.5,None,2024-10-10 18h34.08.104328 +0530,
51,0,51,0,98.87248650001129,,98.82422830001451,5,98.87248650001129,98.87248650001129,0.034061400045175105,101.0660160999978,[-0.487962962962963],[0.43333333333333335],[1],[0],[0],[2.2081706000026315],['target'],02,001,2024-10-10_18h33.20.582,VisualSearch,2024.1.5,None,2024-10-10 18h34.08.104328 +0530,
52,0,52,0,101.14887040003669,,101.07274700002745,10,101.14887040003669,101.14887040003669,0.05705930001568049,103.54848120000679,[0.475],[0.1675925925925926],[1],[0],[0],[2.419171700021252],['target'],02,001,2024-10-10_18h33.20.582,VisualSearch,2024.1.5,None,2024-10-10 18h34.08.104328 +0530,
53,0,53,0,103.60539779998362,,103.55608429998392,5,103.60539779998362,103.60539779998362,0.03295560000697151,105.14540259999922,[-0.43796296296296294],[0.018518518518518517],[1],[0],[0],[1.5571768000372685],['target'],02,001,2024-10-10_18h33.20.582,VisualSearch,2024.1.5,None,2024-10-10 18h34.08.104328 +0530,
54,0,54,0,105.23893420002423,,105.15240520000225,10,105.23893420002423,105.23893420002423,0.06189700000686571,106.54243299999507,[-0.10092592592592593],[0.31203703703703706],[1],[0],[0],[1.3284401000128128],['target'],02,001,2024-10-10_18h33.20.582,VisualSearch,2024.1.5,None,2024-10-10 18h34.08.104328 +0530,
55,0,55,0,106.59240570000838,,106.54930180002702,5,106.59240570000838,106.59240570000838,0.029193800000939518,109.14177410001867,[-0.2712962962962963],[0.5],[1],[0],[0],[2.5638729999773204],['target'],02,001,2024-10-10_18h33.20.582,VisualSearch,2024.1.5,None,2024-10-10 18h34.08.104328 +0530,
56,0,56,0,109.19617220002692,,109.14938920002896,5,109.19617220002692,109.19617220002692,0.03201770002488047,111.73885550000705,[0.35555555555555557],[-0.3296296296296296],[1],[0],[0],[2.5586377000436187],['target'],02,001,2024-10-10_18h33.20.582,VisualSearch,2024.1.5,None,2024-10-10 18h34.08.104328 +0530,
57,0,57,0,111.82911120000063,,111.74465589999454,10,111.82911120000063,111.82911120000063,0.06305439997231588,113.08772070001578,[0.006481481481481481],[0.2462962962962963],[1],[0],[0],[1.2806523000472225],['target'],02,001,2024-10-10_18h33.20.582,VisualSearch,2024.1.5,None,2024-10-10 18h34.08.104328 +0530,
58,0,58,0,113.14560510002775,,113.0935456000152,5,113.14560510002775,113.14560510002775,0.032094000023789704,114.88579660002142,[0.4888888888888889],[0.225],[1],[0],[0],[1.760751000023447],['target'],02,001,2024-10-10_18h33.20.582,VisualSearch,2024.1.5,None,2024-10-10 18h34.08.104328 +0530,
59,0,59,0,114.99893619999057,,114.89402790000895,10,114.99893619999057,114.99893619999057,0.06753709999611601,116.34806180000305,[0.16296296296296298],[0.4101851851851852],[1],[0],[0],[1.387318899971433],['target'],02,001,2024-10-10_18h33.20.582,VisualSearch,2024.1.5,None,2024-10-10 18h34.08.104328 +0530,
60,0,60,0,116.45045390003361,,116.35488519998034,10,116.45045390003361,116.45045390003361,0.06635999999707565,117.44215020001866,[0.1388888888888889],[0.37962962962962965],[1],[0],[0],[1.021703400008846],['target'],02,001,2024-10-10_18h33.20.582,VisualSearch,2024.1.5,None,2024-10-10 18h34.08.104328 +0530,
61,0,61,0,117.50007120001828,,117.44986200000858,5,117.50007120001828,117.50007120001828,0.033308800018858165,119.28278639999917,[-0.2111111111111111],[0.20277777777777778],[1],[0],[0],[1.8000967999687418],['target'],02,001,2024-10-10_18h33.20.582,VisualSearch,2024.1.5,None,2024-10-10 18h34.08.104328 +0530,
62,0,62,0,119.38544809998712,,119.29112830001395,10,119.38544809998712,119.38544809998712,0.06622440001228824,121.73370480001904,[0.46111111111111114],[0.07407407407407407],[1],[0],[0],[2.3781142000225373],['target'],02,001,2024-10-10_18h33.20.582,VisualSearch,2024.1.5,None,2024-10-10 18h34.08.104328 +0530,
63,0,63,0,121.82880720001413,,121.74028060003184,10,121.82880720001413,121.82880720001413,0.06593390001216903,124.00172360002762,[-0.34074074074074073],[-0.262037037037037],[1],[0],[0],[2.1964009999646805],['target'],02,001,2024-10-10_18h33.20.582,VisualSearch,2024.1.5,None,2024-10-10 18h34.08.104328 +0530,
64,0,64,0,124.05238360003568,,124.00762109999778,5,124.05238360003568,124.05238360003568,0.03117859998019412,126.29266079998342,[-0.03425925925925926],[-0.46944444444444444],[1],[0],[0],[2.2546009000507183],['target'],02,001,2024-10-10_18h33.20.582,VisualSearch,2024.1.5,None,2024-10-10 18h34.08.104328 +0530,
65,0,65,0,126.39099839999108,,126.30042330001015,10,126.39099839999108,126.39099839999108,0.06752490001963452,128.79081390000647,[0.4824074074074074],[0.075],[1],[0],[0],[2.4241953000309877],['target'],02,001,2024-10-10_18h33.20.582,VisualSearch,2024.1.5,None,2024-10-10 18h34.08.104328 +0530,
66,0,66,0,128.84724139998434,,128.79835870000534,5,128.84724139998434,128.84724139998434,0.033938300039153546,131.07099680003012,[0.3435185185185185],[0.1527777777777778],[1],[0],[0],[2.23927849996835],['target'],02,001,2024-10-10_18h33.20.582,VisualSearch,2024.1.5,None,2024-10-10 18h34.08.104328 +0530,
67,0,67,0,131.17581970000174,,131.07740690000355,10,131.17581970000174,131.17581970000174,0.06688639998901635,132.80230189999565,[0.16944444444444445],[0.2564814814814815],[1],[0],[0],[1.6588989999727346],['target'],02,001,2024-10-10_18h33.20.582,VisualSearch,2024.1.5,None,2024-10-10 18h34.08.104328 +0530,
68,0,68,0,132.89485159999458,,132.8087500000256,10,132.89485159999458,132.89485159999458,0.06145259999902919,134.68977360002464,[0.262037037037037],[-0.019444444444444445],[1],[0],[0],[1.8200513999909163],['target'],02,001,2024-10-10_18h33.20.582,VisualSearch,2024.1.5,None,2024-10-10 18h34.08.104328 +0530,
69,0,69,0,134.7490220000036,,134.69719670002814,5,134.7490220000036,134.7490220000036,0.037337199959438294,136.54879199998686,[0.1675925925925926],[-0.30277777777777776],[1],[0],[0],[1.8150635000201873],['target'],02,001,2024-10-10_18h33.20.582,VisualSearch,2024.1.5,None,2024-10-10 18h34.08.104328 +0530,
70,0,70,0,136.6075331000029,,136.55584620003356,5,136.6075331000029,136.6075331000029,0.036698599986266345,138.77997520001372,[-0.3638888888888889],[0.20277777777777778],[1],[0],[0],[2.18824330001371],['target'],02,001,2024-10-10_18h33.20.582,VisualSearch,2024.1.5,None,2024-10-10 18h34.08.104328 +0530,
71,0,71,0,138.87325960001908,,138.7868363999878,10,138.87325960001908,138.87325960001908,0.0630469000316225,140.47771140001714,[0.13240740740740742],[0.12222222222222222],[1],[0],[0],[1.6288476000190713],['target'],02,001,2024-10-10_18h33.20.582,VisualSearch,2024.1.5,None,2024-10-10 18h34.08.104328 +0530,
72,0,72,0,140.5722545000026,,140.48496229999,10,140.5722545000026,140.5722545000026,0.06400420004501939,143.930949600006,[-0.25833333333333336],[-0.2916666666666667],[1],[0],[0],[3.382582399994135],['target'],02,001,2024-10-10_18h33.20.582,VisualSearch,2024.1.5,None,2024-10-10 18h34.08.104328 +0530,
73,0,73,0,143.98021180002252,,143.9365073000081,5,143.98021180002252,143.98021180002252,0.029949699994176626,145.8565588000347,[0.24074074074074073],[-0.21574074074074073],[1],[0],[0],[1.8907363999751396],['target'],02,001,2024-10-10_18h33.20.582,VisualSearch,2024.1.5,None,2024-10-10 18h34.08.104328 +0530,
74,0,74,0,145.95068690000335,,145.86301820003428,10,145.95068690000335,145.95068690000335,0.061014799983240664,148.6255344999954,[0.3194444444444444],[-0.037037037037037035],[1],[0],[0],[2.702328099985607],['target'],02,001,2024-10-10_18h33.20.582,VisualSearch,2024.1.5,None,2024-10-10 18h34.08.104328 +0530,
75,0,75,0,148.67881459998898,,148.63241940003354,5,148.67881459998898,148.67881459998898,0.031111599993892014,150.3532075000112,[-0.3675925925925926],[0.05740740740740741],[1],[0],[0],[1.6900935999583453],['target'],02,001,2024-10-10_18h33.20.582,VisualSearch,2024.1.5,None,2024-10-10 18h34.08.104328 +0530,
76,0,76,0,150.4104441999807,,150.36077820003266,5,150.4104441999807,150.4104441999807,0.03368829999817535,153.15037480002502,[0.42314814814814816],[0.4398148148148148],[1],[0],[0],[2.756744499958586],['target'],02,001,2024-10-10_18h33.20.582,VisualSearch,2024.1.5,None,2024-10-10 18h34.08.104328 +0530,
77,0,77,0,153.21210420003626,,153.15725600003498,5,153.21210420003626,153.21210420003626,0.03881490003550425,154.64861219999148,[0.062037037037037036],[-0.025],[1],[0],[0],[1.4531941000022925],['target'],02,001,2024-10-10_18h33.20.582,VisualSearch,2024.1.5,None,2024-10-10 18h34.08.104328 +0530,
78,0,78,0,154.7073549000197,,154.65542500000447,5,154.7073549000197,154.7073549000197,0.034701500029768795,156.04719409998506,[-0.1685185185185185],[0.11388888888888889],[1],[0],[0],[1.3578233000007458],['target'],02,001,2024-10-10_18h33.20.582,VisualSearch,2024.1.5,None,2024-10-10 18h34.08.104328 +0530,
79,0,79,0,156.09997560002375,,156.05495730001712,5,156.09997560002375,156.09997560002375,0.0339555999962613,157.87929419998545,[0.20925925925925926],[-0.044444444444444446],[1],[0],[0],[1.7911877000005916],['target'],02,001,2024-10-10_18h33.20.582,VisualSearch,2024.1.5,None,2024-10-10 18h34.08.104328 +0530,
80,0,80,0,157.9358257999993,,157.88816560001578,5,157.9358257999993,157.9358257999993,0.032138100010342896,160.04369740001857,[-0.08333333333333333],[-0.4703703703703704],[1],[0],[0],[2.124477199977264],['target'],02,001,2024-10-10_18h33.20.582,VisualSearch,2024.1.5,None,2024-10-10 18h34.08.104328 +0530,
81,0,81,0,160.10278459999245,,160.05144609999843,5,160.10278459999245,160.10278459999245,0.03475130000151694,161.79179640003713,[0.18425925925925926],[-0.32592592592592595],[1],[0],[0],[1.7066642999998294],['target'],02,001,2024-10-10_18h33.20.582,VisualSearch,2024.1.5,None,2024-10-10 18h34.08.104328 +0530,
82,0,82,0,161.84200449998025,,161.80004980001831,5,161.84200449998025,161.84200449998025,0.026642800017725676,163.70657009998104,[-0.2657407407407407],[-0.1685185185185185],[1],[0],[0],[1.881171299959533],['target'],02,001,2024-10-10_18h33.20.582,VisualSearch,2024.1.5,None,2024-10-10 18h34.08.104328 +0530,
83,0,83,0,163.79432570002973,,163.71300839999458,10,163.79432570002973,163.79432570002973,0.05225820001214743,166.55924119998235,[0.24351851851851852],[0.4787037037037037],[1],[0],[0],[2.7945584999979474],['target'],02,001,2024-10-10_18h33.20.582,VisualSearch,2024.1.5,None,2024-10-10 18h34.08.104328 +0530,
84,0,84,0,166.60899560002144,,166.56630780000705,5,166.60899560002144,166.60899560002144,0.02883790002670139,168.16951600002358,[0.1787037037037037],[0.3990740740740741],[1],[0],[0],[1.5748955000308342],['target'],02,001,2024-10-10_18h33.20.582,VisualSearch,2024.1.5,None,2024-10-10 18h34.08.104328 +0530,
85,0,85,0,168.22167480003554,,168.1780499999877,5,168.22167480003554,168.22167480003554,0.027049099968280643,170.96664280002005,[0.2759259259259259],[-0.4564814814814815],[1],[0],[0],[2.761983499978669],['target'],02,001,2024-10-10_18h33.20.582,VisualSearch,2024.1.5,None,2024-10-10 18h34.08.104328 +0530,
86,0,86,0,171.05359730002237,,170.97313649998978,10,171.05359730002237,171.05359730002237,0.05038949998561293,173.3310596999945,[-0.16574074074074074],[0.4601851851851852],[1],[0],[0],[2.3080750000081025],['target'],02,001,2024-10-10_18h33.20.582,VisualSearch,2024.1.5,None,2024-10-10 18h34.08.104328 +0530,
87,0,87,0,173.4022563000326,,173.33620930003235,10,173.4022563000326,173.4022563000326,0.037506099964957684,175.79560940002557,[0.1425925925925926],[-0.0824074074074074],[1],[0],[0],[2.421980099985376],['target'],02,001,2024-10-10_18h33.20.582,VisualSearch,2024.1.5,None,2024-10-10 18h34.08.104328 +0530,
88,0,88,0,175.8636722000083,,175.8020026999875,10,175.8636722000083,175.8636722000083,0.04386690002866089,177.44577400002163,[-0.06666666666666667],[0.15092592592592594],[1],[0],[0],[1.6012172999908216],['target'],02,001,2024-10-10_18h33.20.582,VisualSearch,2024.1.5,None,2024-10-10 18h34.08.104328 +0530,
89,0,89,0,177.51458990003448,,177.4509815000347,10,177.51458990003448,177.51458990003448,0.04557690001092851,178.84224169998197,[-0.025],[-0.06759259259259259],[1],[0],[0],[1.3459829000057653],['target'],02,001,2024-10-10_18h33.20.582,VisualSearch,2024.1.5,None,2024-10-10 18h34.08.104328 +0530,
90,0,90,0,178.8872066999902,,178.8468520999886,5,178.8872066999902,178.8872066999902,0.025891900004353374,180.50897450000048,[0.08796296296296297],[-0.28888888888888886],[1],[0],[0],[1.6366923000314273],['target'],02,001,2024-10-10_18h33.20.582,VisualSearch,2024.1.5,None,2024-10-10 18h34.08.104328 +0530,
91,0,91,0,180.53835610003443,,180.51300879998598,5,180.53835610003443,180.53835610003443,0.016065299976617098,182.1242401000345,[0.2222222222222222],[-0.05648148148148148],[1],[0],[0],[1.5951279000146315],['target'],02,001,2024-10-10_18h33.20.582,VisualSearch,2024.1.5,None,2024-10-10 18h34.08.104328 +0530,
92,0,92,0,182.2059397000121,,182.13226510002278,10,182.2059397000121,182.2059397000121,0.052994699974078685,184.50617150001926,[-0.11944444444444445],[0.09814814814814815],[1],[0],[0],[2.322146899998188],['target'],02,001,2024-10-10_18h33.20.582,VisualSearch,2024.1.5,None,2024-10-10 18h34.08.104328 +0530,
93,0,93,0,184.54614739998942,,184.51106560003245,5,184.54614739998942,184.54614739998942,0.019316599995363504,186.6035969000077,[-0.40925925925925927],[-0.024074074074074074],[1],[0],[0],[2.073202300001867],['target'],02,001,2024-10-10_18h33.20.582,VisualSearch,2024.1.5,None,2024-10-10 18h34.08.104328 +0530,
94,0,94,0,186.6419036000152,,186.6105328000267,5,186.6419036000152,186.6419036000152,0.02149379998445511,188.23398140002973,[0.40185185185185185],[0.06481481481481481],[1],[0],[0],[1.6025155000388622],['target'],02,001,2024-10-10_18h33.20.582,VisualSearch,2024.1.5,None,2024-10-10 18h34.08.104328 +0530,
95,0,95,0,188.27330649999203,,188.24076250003418,5,188.27330649999203,188.27330649999203,0.021464899997226894,189.7158251000219,[0.36018518518518516],[0.32592592592592595],[1],[0],[0],[1.4541464999783784],['target'],02,001,2024-10-10_18h33.20.582,VisualSearch,2024.1.5,None,2024-10-10 18h34.08.104328 +0530,
96,0,96,0,189.7601250000298,,189.7215452999808,5,189.7601250000298,189.7601250000298,0.02163729997118935,191.53197429998545,[-0.47129629629629627],[-0.1638888888888889],[1],[0],[0],[1.788662699982524],['target'],02,001,2024-10-10_18h33.20.582,VisualSearch,2024.1.5,None,2024-10-10 18h34.08.104328 +0530,
97,0,97,0,191.56709440000122,,191.53937210002914,5,191.56709440000122,191.56709440000122,0.019894400029443204,192.7644183000084,[-0.362962962962963],[-0.022222222222222223],[1],[0],[0],[1.2059614000027068],['target'],02,001,2024-10-10_18h33.20.582,VisualSearch,2024.1.5,None,2024-10-10 18h34.08.104328 +0530,
98,0,98,0,192.85090930003207,,192.77423089998774,10,192.85090930003207,192.85090930003207,0.05378700001165271,195.2105690999888,[-0.06759259259259259],[0.4537037037037037],[1],[0],[0],[2.3832562000025064],['target'],02,001,2024-10-10_18h33.20.582,VisualSearch,2024.1.5,None,2024-10-10 18h34.08.104328 +0530,
99,0,99,0,195.252324400004,,195.21638440003153,5,195.252324400004,195.252324400004,0.02449540002271533,196.65899730002275,[-0.2824074074074074],[0.25925925925925924],[1],[0],[0],[1.4189437999739312],['target'],02,001,2024-10-10_18h33.20.582,VisualSearch,2024.1.5,None,2024-10-10 18h34.08.104328 +0530,
100,0,100,0,196.7081179000088,,196.6631101000239,10,196.7081179000088,196.7081179000088,0.03241260000504553,198.9973756999825,[0.0787037037037037],[-0.2796296296296296],[1],[0],[0],[2.301825499976985],['target'],02,001,2024-10-10_18h33.20.582,VisualSearch,2024.1.5,None,2024-10-10 18h34.08.104328 +0530,
101,0,101,0,199.05416659999173,,199.00419750000583,5,199.05416659999173,199.05416659999173,0.032918900018557906,200.78910500003258,[-0.3435185185185185],[0.3648148148148148],[1],[0],[0],[1.7527151000103913],['target'],02,001,2024-10-10_18h33.20.582,VisualSearch,2024.1.5,None,2024-10-10 18h34.08.104328 +0530,
102,0,102,0,200.89019910001662,,200.7960247999872,10,200.89019910001662,200.89019910001662,0.06918019999284297,203.3194489000016,[0.46574074074074073],[-0.4361111111111111],[1],[0],[0],[2.455055500031449],['target'],02,001,2024-10-10_18h33.20.582,VisualSearch,2024.1.5,None,2024-10-10 18h34.08.104328 +0530,
103,0,103,0,203.3709683000343,,203.32574310002383,5,203.3709683000343,203.3709683000343,0.02983359998324886,205.16821969999,[0.18425925925925926],[0.21851851851851853],[1],[0],[0],[1.8131999000324868],['target'],02,001,2024-10-10_18h33.20.582,VisualSearch,2024.1.5,None,2024-10-10 18h34.08.104328 +0530,
104,0,104,0,205.26054689998273,,205.17527559999144,10,205.26054689998273,205.26054689998273,0.061648699978832155,206.9268627000274,[-0.09259259259259259],[-0.12962962962962962],[1],[0],[0],[1.6905339999939315],['target'],02,001,2024-10-10_18h33.20.582,VisualSearch,2024.1.5,None,2024-10-10 18h34.08.104328 +0530,
105,0,105,0,206.97882750001736,,206.93421720003244,5,206.97882750001736,206.97882750001736,0.030647900013718754,208.11543270002585,[-0.08888888888888889],[-0.17222222222222222],[1],[0],[0],[1.151365400000941],['target'],02,001,2024-10-10_18h33.20.582,VisualSearch,2024.1.5,None,2024-10-10 18h34.08.104328 +0530,
106,0,106,0,208.17221430002246,,208.12314889999107,5,208.17221430002246,208.17221430002246,0.03185549995396286,209.49728820001474,[-0.2564814814814815],[0.13055555555555556],[1],[0],[0],[1.343454199959524],['target'],02,001,2024-10-10_18h33.20.582,VisualSearch,2024.1.5,None,2024-10-10 18h34.08.104328 +0530,
107,0,107,0,209.60301820002496,,209.50486879999517,10,209.60301820002496,209.60301820002496,0.06856419995892793,211.00830109999515,[-0.07592592592592592],[0.21203703703703702],[1],[0],[0],[1.435838000033982],['target'],02,001,2024-10-10_18h33.20.582,VisualSearch,2024.1.5,None,2024-10-10 18h34.08.104328 +0530,
108,0,108,0,211.1063518000301,,211.0151659999974,10,211.1063518000301,211.1063518000301,0.06474780000280589,212.7809315000195,[0.09814814814814815],[0.07037037037037037],[1],[0],[0],[1.701558600005228],['target'],02,001,2024-10-10_18h33.20.582,VisualSearch,2024.1.5,None,2024-10-10 18h34.08.104328 +0530,
109,0,109,0,212.8372534000082,,212.78775070002303,5,212.8372534000082,212.8372534000082,0.03213399997912347,214.24392700003227,[0.17592592592592593],[-0.18333333333333332],[1],[0],[0],[1.424715799978003],['target'],02,001,2024-10-10_18h33.20.582,VisualSearch,2024.1.5,None,2024-10-10 18h34.08.104328 +0530,
110,0,110,0,214.30288820003625,,214.25155620003352,5,214.30288820003625,214.30288820003625,0.0340174000011757,215.6083338999888,[0.41574074074074074],[0.3675925925925926],[1],[0],[0],[1.323633299965877],['target'],02,001,2024-10-10_18h33.20.582,VisualSearch,2024.1.5,None,2024-10-10 18h34.08.104328 +0530,
111,0,111,0,215.71096500003478,,215.6155590999988,10,215.71096500003478,215.71096500003478,0.07255730003817007,217.81835130002582,[0.3],[-0.325],[1],[0],[0],[2.131054600002244],['target'],02,001,2024-10-10_18h33.20.582,VisualSearch,2024.1.5,None,2024-10-10 18h34.08.104328 +0530,
112,0,112,0,217.87487749999855,,217.82676740002353,5,217.87487749999855,217.87487749999855,0.03322949999710545,219.28910059999907,[-0.14537037037037037],[-0.18518518518518517],[1],[0],[0],[1.4298100000014529],['target'],02,001,2024-10-10_18h33.20.582,VisualSearch,2024.1.5,None,2024-10-10 18h34.08.104328 +0530,
113,0,113,0,219.3837213999941,,219.29573070001788,10,219.3837213999941,219.3837213999941,0.06371859996579587,221.0464307999937,[0.041666666666666664],[-0.4361111111111111],[1],[0],[0],[1.687780299980659],['target'],02,001,2024-10-10_18h33.20.582,VisualSearch,2024.1.5,None,2024-10-10 18h34.08.104328 +0530,
114,0,114,0,221.143788699992,,221.05459429998882,10,221.143788699992,221.143788699992,0.06393740000203252,223.0216223000316,[-0.25092592592592594],[0.41203703703703703],[1],[0],[0],[1.9040394999901764],['target'],02,001,2024-10-10_18h33.20.582,VisualSearch,2024.1.5,None,2024-10-10 18h34.08.104328 +0530,
115,0,115,0,223.1088581000222,,223.02769830002217,10,223.1088581000222,223.1088581000222,0.05646539997542277,226.1476613000268,[-0.010185185185185186],[-0.3787037037037037],[1],[0],[0],[3.06395329994848],['target'],02,001,2024-10-10_18h33.20.582,VisualSearch,2024.1.5,None,2024-10-10 18h34.08.104328 +0530,
116,0,116,0,226.20560430001933,,226.15548720001243,5,226.20560430001933,226.20560430001933,0.032910300011280924,228.54651010001544,[-0.30833333333333335],[0.4546296296296296],[1],[0],[0],[2.358892799995374],['target'],02,001,2024-10-10_18h33.20.582,VisualSearch,2024.1.5,None,2024-10-10 18h34.08.104328 +0530,
117,0,117,0,228.60908199998084,,228.5536407000036,5,228.60908199998084,228.60908199998084,0.03619109996361658,230.64455510000698,[0.4824074074074074],[-0.21296296296296297],[1],[0],[0],[2.0554214000003412],['target'],02,001,2024-10-10_18h33.20.582,VisualSearch,2024.1.5,None,2024-10-10 18h34.08.104328 +0530,
118,0,118,0,230.7494681000244,,230.65190490003442,10,230.7494681000244,230.7494681000244,0.06555989995831624,232.93549430003623,[-0.3194444444444444],[-0.049074074074074076],[1],[0],[0],[2.218796100001782],['target'],02,001,2024-10-10_18h33.20.582,VisualSearch,2024.1.5,None,2024-10-10 18h34.08.104328 +0530,
119,0,119,0,232.99518909998005,,232.94354840001324,5,232.99518909998005,232.99518909998005,0.03174159995978698,235.14157869998598,[-0.40185185185185185],[-0.2101851851851852],[1],[0],[0],[2.1669312000158243],['target'],02,001,2024-10-10_18h33.20.582,VisualSearch,2024.1.5,None,2024-10-10 18h34.08.104328 +0530,
120,0,120,0,235.20134560001316,,235.14846870000474,5,235.20134560001316,235.20134560001316,0.03738260001409799,237.45447070000228,[0.4398148148148148],[-0.35648148148148145],[1],[0],[0],[2.269406799983699],['target'],02,001,2024-10-10_18h33.20.582,VisualSearch,2024.1.5,None,2024-10-10 18h34.08.104328 +0530,
121,0,121,0,237.5114308000193,,237.46279910003068,5,237.5114308000193,237.5114308000193,0.03328770003281534,239.38528610003414,[0.075],[0.08148148148148149],[1],[0],[0],[1.8907481000060216],['target'],02,001,2024-10-10_18h33.20.582,VisualSearch,2024.1.5,None,2024-10-10 18h34.08.104328 +0530,
122,0,122,0,239.43952389998594,,239.39023090002593,5,239.43952389998594,239.43952389998594,0.032120399991981685,240.68558779999148,[0.23425925925925925],[0.09444444444444444],[1],[0],[0],[1.2641621000366285],['target'],02,001,2024-10-10_18h33.20.582,VisualSearch,2024.1.5,None,2024-10-10 18h34.08.104328 +0530,
123,0,123,0,240.74329050001688,,240.69276420003735,5,240.74329050001688,240.74329050001688,0.03353019995847717,242.88333700003568,[-0.30925925925925923],[0.2462962962962963],[1],[0],[0],[2.1576406999956816],['target'],02,001,2024-10-10_18h33.20.582,VisualSearch,2024.1.5,None,2024-10-10 18h34.08.104328 +0530,
124,0,124,0,242.9828435999807,,242.89137279998977,10,242.9828435999807,242.9828435999807,0.06327109999256209,244.2188341000001,[-0.1675925925925926],[0.4777777777777778],[1],[0],[0],[1.265743400028441],['target'],02,001,2024-10-10_18h33.20.582,VisualSearch,2024.1.5,None,2024-10-10 18h34.08.104328 +0530,
125,0,125,0,244.27038639999228,,244.22597949998453,5,244.27038639999228,244.27038639999228,0.030622299993410707,246.19653930002823,[-0.48333333333333334],[-0.21296296296296297],[1],[0],[0],[1.940545099962037],['target'],02,001,2024-10-10_18h33.20.582,VisualSearch,2024.1.5,None,2024-10-10 18h34.08.104328 +0530,
126,0,126,0,246.25568830000702,,246.20516549999593,5,246.25568830000702,246.25568830000702,0.03628030000254512,251.54213690001052,[0.3611111111111111],[-0.2833333333333333],[1],[0],[0],[5.301576099998783],['target'],02,001,2024-10-10_18h33.20.582,VisualSearch,2024.1.5,None,2024-10-10 18h34.08.104328 +0530,
127,0,127,0,251.6402672000113,,251.54955300001893,10,251.6402672000113,251.6402672000113,0.06827590003376827,253.7681248000008,[-0.45185185185185184],[-0.12962962962962962],[1],[0],[0],[2.1512415000470355],['target'],02,001,2024-10-10_18h33.20.582,VisualSearch,2024.1.5,None,2024-10-10 18h34.08.104328 +0530,
128,0,128,0,253.85220680001657,,253.7747062999988,10,253.85220680001657,253.85220680001657,0.055765299999620765,255.7826381000341,[-0.33796296296296297],[0.38981481481481484],[1],[0],[0],[1.9527207000064664],['target'],02,001,2024-10-10_18h33.20.582,VisualSearch,2024.1.5,None,2024-10-10 18h34.08.104328 +0530,
129,0,129,0,255.8308977999841,,255.78905150003266,5,255.8308977999841,255.8308977999841,0.029026700009126216,257.3379956000135,[0.13055555555555556],[0.4185185185185185],[1],[0],[0],[1.5204901000251994],['target'],02,001,2024-10-10_18h33.20.582,VisualSearch,2024.1.5,None,2024-10-10 18h34.08.104328 +0530,
130,0,130,0,257.4402754000039,,257.3461719999905,10,257.4402754000039,257.4402754000039,0.06885459995828569,259.43050180003047,[0.42685185185185187],[0.14629629629629629],[1],[0],[0],[2.0162525000050664],['target'],02,001,2024-10-10_18h33.20.582,VisualSearch,2024.1.5,None,2024-10-10 18h34.08.104328 +0530,
131,0,131,0,259.48781700001564,,259.43724250001833,5,259.48781700001564,259.48781700001564,0.036113600013777614,260.8163230000064,[-0.03333333333333333],[0.003703703703703704],[1],[0],[0],[1.3437787999864668],['target'],02,001,2024-10-10_18h33.20.582,VisualSearch,2024.1.5,None,2024-10-10 18h34.08.104328 +0530,
132,0,132,0,260.8697512000217,,260.8229633999872,5,260.8697512000217,260.8697512000217,0.03152160003082827,262.84761960001197,[0.3416666666666667],[-0.18611111111111112],[1],[0],[0],[1.993962200009264],['target'],02,001,2024-10-10_18h33.20.582,VisualSearch,2024.1.5,None,2024-10-10 18h34.08.104328 +0530,
133,0,133,0,262.94555350003066,,262.85593279998284,10,262.94555350003066,262.94555350003066,0.06252180004958063,264.77909550000913,[-0.1814814814814815],[-0.33055555555555555],[1],[0],[0],[1.8616093000164255],['target'],02,001,2024-10-10_18h33.20.582,VisualSearch,2024.1.5,None,2024-10-10 18h34.08.104328 +0530,
134,0,134,0,264.82544240000425,,264.785534500028,5,264.82544240000425,264.82544240000425,0.02841099997749552,266.6284247000003,[0.47685185185185186],[0.4203703703703704],[1],[0],[0],[1.8150585000403225],['target'],02,001,2024-10-10_18h33.20.582,VisualSearch,2024.1.5,None,2024-10-10 18h34.08.104328 +0530,
135,0,135,0,266.66863430000376,,266.63336029998027,5,266.66863430000376,266.66863430000376,0.023974700015969574,268.29289490001975,[-0.33611111111111114],[0.12129629629629629],[1],[0],[0],[1.6353713999851607],['target'],02,001,2024-10-10_18h33.20.582,VisualSearch,2024.1.5,None,2024-10-10 18h34.08.104328 +0530,
136,0,136,0,268.3348015000229,,268.2984938999871,5,268.3348015000229,268.3348015000229,0.024458900035824627,269.924349399982,[-0.44722222222222224],[0.4074074074074074],[1],[0],[0],[1.6015420999610797],['target'],02,001,2024-10-10_18h33.20.582,VisualSearch,2024.1.5,None,2024-10-10 18h34.08.104328 +0530,
137,0,137,0,270.0110091000097,,269.9318740000017,10,270.0110091000097,270.0110091000097,0.05467240000143647,272.33909720001975,[-0.21388888888888888],[-0.1388888888888889],[1],[0],[0],[2.3536505000083707],['target'],02,001,2024-10-10_18h33.20.582,VisualSearch,2024.1.5,None,2024-10-10 18h34.08.104328 +0530,
138,0,138,0,272.4268061000039,,272.3492502000299,10,272.4268061000039,272.4268061000039,0.05877250002231449,274.2878611999913,[0.37407407407407406],[0.3675925925925926],[1],[0],[0],[1.8814682000083849],['target'],02,001,2024-10-10_18h33.20.582,VisualSearch,2024.1.5,None,2024-10-10 18h34.08.104328 +0530,
139,0,139,0,274.32453370001167,,274.2929320000112,5,274.32453370001167,274.32453370001167,0.020814600051380694,275.80288590001874,[-0.05462962962962963],[0.037037037037037035],[1],[0],[0],[1.4892277999897487],['target'],02,001,2024-10-10_18h33.20.582,VisualSearch,2024.1.5,None,2024-10-10 18h34.08.104328 +0530,
140,0,140,0,275.88320310000563,,275.8109925999888,10,275.88320310000563,275.88320310000563,0.05649860005360097,277.3373881999869,[0.019444444444444445],[0.3388888888888889],[1],[0],[0],[1.4714949000044726],['target'],02,001,2024-10-10_18h33.20.582,VisualSearch,2024.1.5,None,2024-10-10 18h34.08.104328 +0530,
141,0,141,0,277.40657970000757,,277.3429402000038,10,277.40657970000757,277.40657970000757,0.04689459997462109,278.6501536000287,[0.11018518518518519],[0.2388888888888889],[1],[0],[0],[1.2603323999792337],['target'],02,001,2024-10-10_18h33.20.582,VisualSearch,2024.1.5,None,2024-10-10 18h34.08.104328 +0530,
142,0,142,0,278.7138796999934,,278.65452179999556,10,278.7138796999934,278.7138796999934,0.04606490000151098,280.0991772999987,[0.22962962962962963],[0.4388888888888889],[1],[0],[0],[1.3989578000037],['target'],02,001,2024-10-10_18h33.20.582,VisualSearch,2024.1.5,None,2024-10-10 18h34.08.104328 +0530,
143,0,143,0,280.13587470003404,,280.1057719999808,5,280.13587470003404,280.13587470003404,0.02086420002160594,281.34714130003704,[0.1388888888888889],[-0.24259259259259258],[1],[0],[0],[1.2210144000127912],['target'],02,001,2024-10-10_18h33.20.582,VisualSearch,2024.1.5,None,2024-10-10 18h34.08.104328 +0530,
144,0,144,0,281.4190882000257,,281.3529027000186,10,281.4190882000257,281.4190882000257,0.04744080000091344,282.69555529998615,[0.04259259259259259],[-0.17592592592592593],[1],[0],[0],[1.2955355999874882],['target'],02,001,2024-10-10_18h33.20.582,VisualSearch,2024.1.5,None,2024-10-10 18h34.08.104328 +0530,
145,0,145,0,282.7719962000265,,282.7004236000357,10,282.7719962000265,282.7719962000265,0.049630099965725094,284.72711109998636,[0.44537037037037036],[0.41203703703703703],[1],[0],[0],[1.9777393999975175],['target'],02,001,2024-10-10_18h33.20.582,VisualSearch,2024.1.5,None,2024-10-10 18h34.08.104328 +0530,
146,0,146,0,284.80377410002984,,284.73368230002234,10,284.80377410002984,284.80377410002984,0.04837610002141446,285.97627849999117,[0.4527777777777778],[0.2935185185185185],[1],[0],[0],[1.1949617000063881],['target'],02,001,2024-10-10_18h33.20.582,VisualSearch,2024.1.5,None,2024-10-10 18h34.08.104328 +0530,
147,0,147,0,286.0452962000272,,285.98157679999713,10,286.0452962000272,286.0452962000272,0.0443239999585785,288.3280009999871,[0.1527777777777778],[-0.38981481481481484],[1],[0],[0],[2.302408599993214],['target'],02,001,2024-10-10_18h33.20.582,VisualSearch,2024.1.5,None,2024-10-10 18h34.08.104328 +0530,
148,0,148,0,288.41440100001637,,288.33575760002714,10,288.41440100001637,288.41440100001637,0.05622550001135096,289.6922195000225,[0.08796296296296297],[-0.24444444444444444],[1],[0],[0],[1.3012150999857113],['target'],02,001,2024-10-10_18h33.20.582,VisualSearch,2024.1.5,None,2024-10-10 18h34.08.104328 +0530,
149,0,149,0,289.73265770002035,,289.69779310002923,5,289.73265770002035,289.73265770002035,0.0230716000078246,291.45536620001076,[0.3351851851851852],[0.10092592592592593],[1],[0],[0],[1.7351695999968797],['target'],02,001,2024-10-10_18h33.20.582,VisualSearch,2024.1.5,None,2024-10-10 18h34.08.104328 +0530,
150,0,150,0,291.5018863999867,,291.46118729998125,5,291.5018863999867,291.5018863999867,0.027030700002796948,293.6694134999998,[-0.18611111111111112],[-0.3972222222222222],[1],[0],[0],[2.1824982999823987],['target'],02,001,2024-10-10_18h33.20.582,VisualSearch,2024.1.5,None,2024-10-10 18h34.08.104328 +0530,
151,0,151,0,293.74089299998013,,293.6738912999863,10,293.74089299998013,293.74089299998013,0.04157059994759038,295.41775780002354,[0.0712962962962963],[-0.011111111111111112],[1],[0],[0],[1.702477699960582],['target'],02,001,2024-10-10_18h33.20.582,VisualSearch,2024.1.5,None,2024-10-10 18h34.08.104328 +0530,
152,0,152,0,295.49430950003443,,295.4233666000073,10,295.49430950003443,295.49430950003443,0.049756099993828684,297.02997570001753,[0.08148148148148149],[-0.30185185185185187],[1],[0],[0],[1.5567271999898367],['target'],02,001,2024-10-10_18h33.20.582,VisualSearch,2024.1.5,None,2024-10-10 18h34.08.104328 +0530,
153,0,153,0,297.1307971000206,,297.0370152000105,10,297.1307971000206,297.1307971000206,0.06701380002778023,298.9843356999918,[0.4648148148148148],[0.3509259259259259],[1],[0],[0],[1.8812828999944031],['target'],02,001,2024-10-10_18h33.20.582,VisualSearch,2024.1.5,None,2024-10-10 18h34.08.104328 +0530,
154,0,154,0,299.0839763000258,,298.99177309998777,10,299.0839763000258,299.0839763000258,0.06507859996054322,301.0320803000359,[-0.4601851851851852],[0.09537037037037037],[1],[0],[0],[1.9759505999973044],['target'],02,001,2024-10-10_18h33.20.582,VisualSearch,2024.1.5,None,2024-10-10 18h34.08.104328 +0530,
155,0,155,0,301.1318602000247,,301.03941680002026,10,301.1318602000247,301.1318602000247,0.06722730002366006,304.31042799999705,[-0.2953703703703704],[0.4787037037037037],[1],[0],[0],[3.2048970999894664],['target'],02,001,2024-10-10_18h33.20.582,VisualSearch,2024.1.5,None,2024-10-10 18h34.08.104328 +0530,
156,0,156,0,304.35186350002186,,304.3148712000111,5,304.35186350002186,304.35186350002186,0.02604199998313561,306.09101050003665,[-0.005555555555555556],[-0.15555555555555556],[1],[0],[0],[1.750193899963051],['target'],02,001,2024-10-10_18h33.20.582,VisualSearch,2024.1.5,None,2024-10-10 18h34.08.104328 +0530,
157,0,157,0,306.1489663000102,,306.09852420003153,5,306.1489663000102,306.1489663000102,0.0347320000291802,308.45490569999674,[0.4685185185185185],[0.47314814814814815],[1],[0],[0],[2.3229314999771304],['target'],02,001,2024-10-10_18h33.20.582,VisualSearch,2024.1.5,None,2024-10-10 18h34.08.104328 +0530,
158,0,158,0,308.50877790001687,,308.4625035999925,5,308.50877790001687,308.50877790001687,0.03135909995762631,310.60312460002024,[-0.16111111111111112],[0.21481481481481482],[1],[0],[0],[2.1100327000021935],['target'],02,001,2024-10-10_18h33.20.582,VisualSearch,2024.1.5,None,2024-10-10 18h34.08.104328 +0530,
159,0,159,0,310.6627385999891,,310.6118901000009,5,310.6627385999891,310.6627385999891,0.035298399976454675,312.31812330003595,[0.04722222222222222],[-0.002777777777777778],[1],[0],[0],[1.6723994999774732],['target'],02,001,2024-10-10_18h33.20.582,VisualSearch,2024.1.5,None,2024-10-10 18h34.08.104328 +0530,
160,0,160,0,312.37686479999684,,312.32610270002624,5,312.37686479999684,312.37686479999684,0.03554040001472458,314.21693280001637,[-0.3037037037037037],[-0.23796296296296296],[1],[0],[0],[1.8564882999635302],['target'],02,001,2024-10-10_18h33.20.582,VisualSearch,2024.1.5,None,2024-10-10 18h34.08.104328 +0530,
161,0,161,0,314.2689750000136,,314.22420639998745,5,314.2689750000136,314.2689750000136,0.03169309999793768,316.4640039000078,[-0.31203703703703706],[0.35185185185185186],[1],[0],[0],[2.2088417999912053],['target'],02,001,2024-10-10_18h33.20.582,VisualSearch,2024.1.5,None,2024-10-10 18h34.08.104328 +0530,
162,0,162,0,316.52286319999257,,316.4728372999816,5,316.52286319999257,316.52286319999257,0.033671599987428635,318.3127704000217,[0.487962962962963],[0.2574074074074074],[1],[0],[0],[1.807876800012309],['target'],02,001,2024-10-10_18h33.20.582,VisualSearch,2024.1.5,None,2024-10-10 18h34.08.104328 +0530,
163,0,163,0,318.4153968000319,,318.3202951999847,10,318.4153968000319,318.4153968000319,0.06752240000059828,320.36167569999816,[-0.43148148148148147],[0.11481481481481481],[1],[0],[0],[1.975116599991452],['target'],02,001,2024-10-10_18h33.20.582,VisualSearch,2024.1.5,None,2024-10-10 18h34.08.104328 +0530,
164,0,164,0,320.4186558999936,,320.3684573000064,5,320.4186558999936,320.4186558999936,0.03206380002666265,321.7931208999944,[-0.18425925925925926],[0.2222222222222222],[1],[0],[0],[1.3933651999686845],['target'],02,001,2024-10-10_18h33.20.582,VisualSearch,2024.1.5,None,2024-10-10 18h34.08.104328 +0530,
165,0,165,0,321.90187659999356,,321.80092680000234,10,321.90187659999356,321.90187659999356,0.07310360000701621,324.11311159998877,[0.2518518518518518],[-0.0962962962962963],[1],[0],[0],[2.2401567000197247],['target'],02,001,2024-10-10_18h33.20.582,VisualSearch,2024.1.5,None,2024-10-10 18h34.08.104328 +0530,
166,0,166,0,324.22128130000783,,324.12139169999864,10,324.22128130000783,324.22128130000783,0.06715010001789778,326.1520941000199,[-0.21666666666666667],[-0.2462962962962963],[1],[0],[0],[1.9648092999705113],['target'],02,001,2024-10-10_18h33.20.582,VisualSearch,2024.1.5,None,2024-10-10 18h34.08.104328 +0530,
167,0,167,0,326.2455840000184,,326.15855570003623,10,326.2455840000184,326.2455840000184,0.061662200023420155,328.45272050000494,[-0.3648148148148148],[-0.4388888888888889],[1],[0],[0],[2.23330399999395],['target'],02,001,2024-10-10_18h33.20.582,VisualSearch,2024.1.5,None,2024-10-10 18h34.08.104328 +0530,
168,0,168,0,328.51407330000075,,328.45793249999406,10,328.51407330000075,328.51407330000075,0.04073509998852387,329.9240684999968,[0.25925925925925924],[0.11574074074074074],[1],[0],[0],[1.4258270999998786],['target'],02,001,2024-10-10_18h33.20.582,VisualSearch,2024.1.5,None,2024-10-10 18h34.08.104328 +0530,
169,0,169,0,330.02409299998544,,329.9327199999825,10,330.02409299998544,330.02409299998544,0.06650800001807511,331.80778299999656,[-0.18981481481481483],[-0.3212962962962963],[1],[0],[0],[1.8109560000011697],['target'],02,001,2024-10-10_18h33.20.582,VisualSearch,2024.1.5,None,2024-10-10 18h34.08.104328 +0530,
170,0,170,0,331.86463120003464,,331.81633190001594,5,331.86463120003464,331.86463120003464,0.033191599999554455,333.49969219998457,[0.1814814814814815],[-0.07407407407407407],[1],[0],[0],[1.6506494999630377],['target'],02,001,2024-10-10_18h33.20.582,VisualSearch,2024.1.5,None,2024-10-10 18h34.08.104328 +0530,
171,0,171,0,333.59064960002434,,333.50649470003555,10,333.59064960002434,333.59064960002434,0.05979149998165667,335.07447890000185,[0.20092592592592592],[0.2324074074074074],[1],[0],[0],[1.5089555000304244],['target'],02,001,2024-10-10_18h33.20.582,VisualSearch,2024.1.5,None,2024-10-10 18h34.08.104328 +0530,
172,0,172,0,335.15320519998204,,335.08461319998605,10,335.15320519998204,335.15320519998204,0.05317919998196885,337.1352438000031,[-0.37222222222222223],[-0.31203703703703706],[1],[0],[0],[1.9994623999809846],['target'],02,001,2024-10-10_18h33.20.582,VisualSearch,2024.1.5,None,2024-10-10 18h34.08.104328 +0530,
173,0,173,0,337.181779000035,,337.14151079999283,5,337.181779000035,337.181779000035,0.02838440000778064,338.7436566000106,[0.4305555555555556],[-0.07037037037037037],[1],[0],[0],[1.574707199994009],['target'],02,001,2024-10-10_18h33.20.582,VisualSearch,2024.1.5,None,2024-10-10 18h34.08.104328 +0530,
174,0,174,0,338.8450367000187,,338.751895399997,10,338.8450367000187,338.8450367000187,0.06981939997058362,340.4790138999815,[0.26851851851851855],[0.2518518518518518],[1],[0],[0],[1.6593822000431828],['target'],02,001,2024-10-10_18h33.20.582,VisualSearch,2024.1.5,None,2024-10-10 18h34.08.104328 +0530,
175,0,175,0,340.53408140002284,,340.4856272999896,5,340.53408140002284,340.53408140002284,0.03286460001254454,342.25813810003456,[0.30277777777777776],[-0.11203703703703703],[1],[0],[0],[1.7399112000130117],['target'],02,001,2024-10-10_18h33.20.582,VisualSearch,2024.1.5,None,2024-10-10 18h34.08.104328 +0530,
176,0,176,0,342.3148083999986,,342.2653435000102,5,342.3148083999986,342.3148083999986,0.03492030000779778,344.05529200000456,[-0.44351851851851853],[0.18333333333333332],[1],[0],[0],[1.7558725000126287],['target'],02,001,2024-10-10_18h33.20.582,VisualSearch,2024.1.5,None,2024-10-10 18h34.08.104328 +0530,
177,0,177,0,344.15619760000845,,344.063222900033,10,344.15619760000845,344.15619760000845,0.06426620000274852,345.25635959999636,[-0.48703703703703705],[0.2490740740740741],[1],[0],[0],[1.1295998999848962],['target'],02,001,2024-10-10_18h33.20.582,VisualSearch,2024.1.5,None,2024-10-10 18h34.08.104328 +0530,
178,0,178,0,345.3142818000051,,345.2633050000295,5,345.3142818000051,345.3142818000051,0.03350919997319579,346.80282189999707,[-0.31666666666666665],[-0.2740740740740741],[1],[0],[0],[1.5067199000041],['target'],02,001,2024-10-10_18h33.20.582,VisualSearch,2024.1.5,None,2024-10-10 18h34.08.104328 +0530,
179,0,179,0,346.90337750001345,,346.8104064000072,10,346.90337750001345,346.90337750001345,0.06764000002294779,349.01647430000594,[0.024074074074074074],[0.4787037037037037],[1],[0],[0],[2.1397585999802686],['target'],02,001,2024-10-10_18h33.20.582,VisualSearch,2024.1.5,None,2024-10-10 18h34.08.104328 +0530,
180,0,180,0,349.0706884000101,,349.0235397000215,5,349.0706884000101,349.0706884000101,0.031235599948558956,350.7157663999824,[0.21666666666666667],[0.07592592592592592],[1],[0],[0],[1.6616676999838091],['target'],02,001,2024-10-10_18h33.20.582,VisualSearch,2024.1.5,None,2024-10-10 18h34.08.104328 +0530,
181,0,181,0,350.7764732000069,,350.7233075000113,5,350.7764732000069,350.7764732000069,0.032569500035606325,352.98014080000576,[-0.13148148148148148],[-0.4601851851851852],[1],[0],[0],[2.224765299994033],['target'],02,001,2024-10-10_18h33.20.582,VisualSearch,2024.1.5,None,2024-10-10 18h34.08.104328 +0530,
182,0,182,0,353.0377741000266,,352.98682809999445,5,353.0377741000266,353.0377741000266,0.033458199992310256,354.52870239998447,[0.003703703703703704],[-0.1425925925925926],[1],[0],[0],[1.5092108999961056],['target'],02,001,2024-10-10_18h33.20.582,VisualSearch,2024.1.5,None,2024-10-10 18h34.08.104328 +0530,
183,0,183,0,354.5872870000312,,354.5359625000274,5,354.5872870000312,354.5872870000312,0.03260130004491657,356.476735400036,[-0.4324074074074074],[0.10462962962962963],[1],[0],[0],[1.9088328999932855],['target'],02,001,2024-10-10_18h33.20.582,VisualSearch,2024.1.5,None,2024-10-10 18h34.08.104328 +0530,
184,0,184,0,356.57713450002484,,356.4843983000028,10,356.57713450002484,356.57713450002484,0.07264940004097298,358.7781685999944,[0.18333333333333332],[0.05],[1],[0],[0],[2.2221862000296824],['target'],02,001,2024-10-10_18h33.20.582,VisualSearch,2024.1.5,None,2024-10-10 18h34.08.104328 +0530,
185,0,185,0,358.8677472000127,,358.7844276999822,10,358.8677472000127,358.8677472000127,0.05993520002812147,360.35106349998387,[0.4703703703703704],[0.053703703703703705],[1],[0],[0],[1.5073091000085697],['target'],02,001,2024-10-10_18h33.20.582,VisualSearch,2024.1.5,None,2024-10-10 18h34.08.104328 +0530,
186,0,186,0,360.45588570000837,,360.3578276000335,10,360.45588570000837,360.45588570000837,0.06969730003038421,362.3367076999857,[-0.2564814814814815],[0.17962962962962964],[1],[0],[0],[1.9100141000235453],['target'],02,001,2024-10-10_18h33.20.582,VisualSearch,2024.1.5,None,2024-10-10 18h34.08.104328 +0530,
187,0,187,0,362.39096739998786,,362.3438385000336,5,362.39096739998786,362.39096739998786,0.03380330000072718,363.4543728000135,[-0.2935185185185185],[0.025],[1],[0],[0],[1.0774266000371426],['target'],02,001,2024-10-10_18h33.20.582,VisualSearch,2024.1.5,None,2024-10-10 18h34.08.104328 +0530,
188,0,188,0,363.5132577000186,,363.4620699000079,5,363.5132577000186,363.5132577000186,0.03352870000526309,365.1530897000339,[0.21203703703703702],[-0.1925925925925926],[1],[0],[0],[1.658421800006181],['target'],02,001,2024-10-10_18h33.20.582,VisualSearch,2024.1.5,None,2024-10-10 18h34.08.104328 +0530,
189,0,189,0,365.21445909998147,,365.1607893999899,5,365.21445909998147,365.21445909998147,0.03686709998873994,367.7831085000071,[0.19166666666666668],[0.2814814814814815],[1],[0],[0],[2.586773900024127],['target'],02,001,2024-10-10_18h33.20.582,VisualSearch,2024.1.5,None,2024-10-10 18h34.08.104328 +0530,
190,0,190,0,367.85617520002415,,367.7905679999967,10,367.85617520002415,367.85617520002415,0.04700779996346682,369.6341860999819,[-0.07777777777777778],[0.47962962962962963],[1],[0],[0],[1.7974897000240162],['target'],02,001,2024-10-10_18h33.20.582,VisualSearch,2024.1.5,None,2024-10-10 18h34.08.104328 +0530,
191,0,191,0,369.6777323000133,,369.63971670001047,5,369.6777323000133,369.6777323000133,0.026832900010049343,371.6967566999956,[-0.02962962962962963],[-0.2462962962962963],[1],[0],[0],[2.0307003000052646],['target'],02,001,2024-10-10_18h33.20.582,VisualSearch,2024.1.5,None,2024-10-10 18h34.08.104328 +0530,
192,0,192,0,371.7364559000125,,371.70253810001304,5,371.7364559000125,371.7364559000125,0.02339909999864176,373.29475850000745,[-0.23981481481481481],[-0.17222222222222222],[1],[0],[0],[1.5690323999733664],['target'],02,001,2024-10-10_18h33.20.582,VisualSearch,2024.1.5,None,2024-10-10 18h34.08.104328 +0530,
193,0,193,0,373.3764736999874,,373.30182530003367,10,373.3764736999874,373.3764736999874,0.055547700030729175,374.5872191999806,[-0.19537037037037036],[-0.2638888888888889],[1],[0],[0],[1.230107700044755],['target'],02,001,2024-10-10_18h33.20.582,VisualSearch,2024.1.5,None,2024-10-10 18h34.08.104328 +0530,
194,0,194,0,374.6418258000049,,374.59534930001246,5,374.6418258000049,374.6418258000049,0.031027000048197806,376.6417300000321,[-0.49907407407407406],[0.3138888888888889],[1],[0],[0],[2.0160867999657057],['target'],02,001,2024-10-10_18h33.20.582,VisualSearch,2024.1.5,None,2024-10-10 18h34.08.104328 +0530,
195,0,195,0,376.7397578000091,,376.6496170000173,10,376.7397578000091,376.7397578000091,0.06354599999031052,378.6723711999948,[0.10555555555555556],[-0.3194444444444444],[1],[0],[0],[1.960260100022424],['target'],02,001,2024-10-10_18h33.20.582,VisualSearch,2024.1.5,None,2024-10-10 18h34.08.104328 +0530,
196,0,196,0,378.71878480003215,,378.6781012000283,5,378.71878480003215,378.71878480003215,0.026574800023809075,380.58771200000774,[-0.42777777777777776],[0.42592592592592593],[1],[0],[0],[1.8837563000270166],['target'],02,001,2024-10-10_18h33.20.582,VisualSearch,2024.1.5,None,2024-10-10 18h34.08.104328 +0530,
197,0,197,0,380.63256860000547,,380.5929836999858,5,380.63256860000547,380.63256860000547,0.027170700021088123,383.00195820000954,[0.21851851851851853],[-0.19722222222222222],[1],[0],[0],[2.3819668000214733],['target'],02,001,2024-10-10_18h33.20.582,VisualSearch,2024.1.5,None,2024-10-10 18h34.08.104328 +0530,
198,0,198,0,383.05378519999795,,383.0085531999939,5,383.05378519999795,383.05378519999795,0.027058099978603423,385.749698300031,[-0.10092592592592593],[0.44907407407407407],[1],[0],[0],[2.714182499970775],['target'],02,001,2024-10-10_18h33.20.582,VisualSearch,2024.1.5,None,2024-10-10 18h34.08.104328 +0530,
199,0,199,0,385.83739040000364,,385.75601549999556,10,385.83739040000364,385.83739040000364,0.051849499985110015,387.3315844000317,[0.049074074074074076],[0.262037037037037],[1],[0],[0],[1.5247430000454187],['target'],02,001,2024-10-10_18h33.20.582,VisualSearch,2024.1.5,None,2024-10-10 18h34.08.104328 +0530,
