trials.thisRepN,trials.thisTrialN,trials.thisN,trials.thisIndex,thisRow.t,notes,trial.started,num_distr,fixation.started,target.started,mouse.started,trial.stopped,mouse.x,mouse.y,mouse.leftButton,mouse.midButton,mouse.rightButton,mouse.time,mouse.clicked_name,participant,session,date,expName,psychopyVersion,frameRate,expStart,
0,0,0,0,0.04836879996582866,,0.0083712000050582,5,0.04836879996582866,0.04836879996582866,0.0374430000083521,1.506668699963484,[-0.4287037037037037],[0.1712962962962963],[1],[0],[0],[1.468190100044012],['target'],03,001,2024-10-10_21h38.24.478,VisualSearch,2024.1.5,None,2024-10-10 21h38.35.899121 +0530,
1,0,1,0,1.5814546999754384,,1.5165809000027366,10,1.5814546999754384,1.5814546999754384,0.051473400031682104,3.0687539000064135,[0.16203703703703703],[0.287962962962963],[1],[0],[0],[1.502072400006],['target'],03,001,2024-10-10_21h38.24.478,VisualSearch,2024.1.5,None,2024-10-10 21h38.35.899121 +0530,
2,0,2,0,3.1212170000071637,,3.072872799995821,10,3.1212170000071637,3.1212170000071637,0.038451200001873076,4.916620899981353,[0.26851851851851855],[-0.13796296296296295],[1],[0],[0],[1.8056715999846347],['target'],03,001,2024-10-10_21h38.24.478,VisualSearch,2024.1.5,None,2024-10-10 21h38.35.899121 +0530,
3,0,3,0,4.955991099996027,,4.921046399977058,5,4.955991099996027,4.955991099996027,0.022654800035525113,6.4831713999737985,[-0.12777777777777777],[-0.28055555555555556],[1],[0],[0],[1.5395764000131749],['target'],03,001,2024-10-10_21h38.24.478,VisualSearch,2024.1.5,None,2024-10-10 21h38.35.899121 +0530,
4,0,4,0,6.535837100003846,,6.489223300013691,5,6.535837100003846,6.535837100003846,0.034089199965819716,7.76431009999942,[-0.1787037037037037],[-0.03796296296296296],[1],[0],[0],[1.2416770999552682],['target'],03,001,2024-10-10_21h38.24.478,VisualSearch,2024.1.5,None,2024-10-10 21h38.35.899121 +0530,
5,0,5,0,7.815435900003649,,7.770575699978508,5,7.815435900003649,7.815435900003649,0.032147100020665675,9.197069499990903,[0.1398148148148148],[0.08333333333333333],[1],[0],[0],[1.3950880999909714],['target'],03,001,2024-10-10_21h38.24.478,VisualSearch,2024.1.5,None,2024-10-10 21h38.35.899121 +0530,
6,0,6,0,9.236010799999349,,9.202422900008969,5,9.236010799999349,9.236010799999349,0.027233999979216605,11.078779599978589,[-0.19166666666666668],[0.5],[1],[0],[0],[1.8498210000107065],['target'],03,001,2024-10-10_21h38.24.478,VisualSearch,2024.1.5,None,2024-10-10 21h38.35.899121 +0530,
7,0,7,0,11.126286100014113,,11.08494679996511,5,11.126286100014113,11.126286100014113,0.03376459999708459,12.810092900006566,[0.46574074074074073],[-0.3388888888888889],[1],[0],[0],[1.6920428999583237],['target'],03,001,2024-10-10_21h38.24.478,VisualSearch,2024.1.5,None,2024-10-10 21h38.35.899121 +0530,
8,0,8,0,12.858845999988262,,12.816384800011292,5,12.858845999988262,12.858845999988262,0.03123819996835664,14.341949499968905,[-0.2388888888888889],[0.23796296296296296],[1],[0],[0],[1.4949469999992289],['target'],03,001,2024-10-10_21h38.24.478,VisualSearch,2024.1.5,None,2024-10-10 21h38.35.899121 +0530,
9,0,9,0,14.39213930000551,,14.348451900004875,5,14.39213930000551,14.39213930000551,0.031092300021555275,16.139688699971884,[-0.3277777777777778],[-0.28703703703703703],[1],[0],[0],[1.7608451000414789],['target'],03,001,2024-10-10_21h38.24.478,VisualSearch,2024.1.5,None,2024-10-10 21h38.35.899121 +0530,
10,0,10,0,16.19660699996166,,16.143726899987087,10,16.19660699996166,16.19660699996166,0.038462999975308776,18.45369120000396,[0.42407407407407405],[0.46944444444444444],[1],[0],[0],[2.271959199977573],['target'],03,001,2024-10-10_21h38.24.478,VisualSearch,2024.1.5,None,2024-10-10 21h38.35.899121 +0530,
11,0,11,0,18.50849440001184,,18.45776149997255,10,18.50849440001184,18.50849440001184,0.04215720004867762,20.285603799973615,[0.09074074074074075],[-0.2851851851851852],[1],[0],[0],[1.7860764999641106],['target'],03,001,2024-10-10_21h38.24.478,VisualSearch,2024.1.5,None,2024-10-10 21h38.35.899121 +0530,
12,0,12,0,20.313639500003774,,20.291523799998686,5,20.313639500003774,20.313639500003774,0.017086500010918826,21.585264900000766,[0.12685185185185185],[0.3712962962962963],[1],[0],[0],[1.276910999964457],['target'],03,001,2024-10-10_21h38.24.478,VisualSearch,2024.1.5,None,2024-10-10 21h38.35.899121 +0530,
13,0,13,0,21.654869899968617,,21.59151810000185,10,21.654869899968617,21.654869899968617,0.0485257999971509,22.866458199976478,[0.27870370370370373],[0.03333333333333333],[1],[0],[0],[1.22733760002302],['target'],03,001,2024-10-10_21h38.24.478,VisualSearch,2024.1.5,None,2024-10-10 21h38.35.899121 +0530,
14,0,14,0,22.942045199975837,,22.870561100018676,10,22.942045199975837,22.942045199975837,0.0532845999696292,24.74834859999828,[-0.24259259259259258],[0.40185185185185185],[1],[0],[0],[1.8248950999695808],['target'],03,001,2024-10-10_21h38.24.478,VisualSearch,2024.1.5,None,2024-10-10 21h38.35.899121 +0530,
15,0,15,0,24.78297719999682,,24.75236220000079,5,24.78297719999682,24.78297719999682,0.019227799959480762,26.24723380000796,[0.32592592592592595],[0.5],[1],[0],[0],[1.475857499986887],['target'],03,001,2024-10-10_21h38.24.478,VisualSearch,2024.1.5,None,2024-10-10 21h38.35.899121 +0530,
16,0,16,0,26.29845210001804,,26.253356700006407,5,26.29845210001804,26.29845210001804,0.0321373000042513,28.279215699993074,[0.2111111111111111],[0.5],[1],[0],[0],[1.9940124999848194],['target'],03,001,2024-10-10_21h38.24.478,VisualSearch,2024.1.5,None,2024-10-10 21h38.35.899121 +0530,
17,0,17,0,28.330777299997862,,28.285721299995203,5,28.330777299997862,28.330777299997862,0.03306039999006316,29.37805010000011,[0.2462962962962963],[0.5],[1],[0],[0],[1.0597117000143044],['target'],03,001,2024-10-10_21h38.24.478,VisualSearch,2024.1.5,None,2024-10-10 21h38.35.899121 +0530,
18,0,18,0,29.424654499976896,,29.38416730001336,5,29.424654499976896,29.424654499976896,0.03071229998022318,31.592777999991085,[0.2814814814814815],[-0.21203703703703702],[1],[0],[0],[2.178449200000614],['target'],03,001,2024-10-10_21h38.24.478,VisualSearch,2024.1.5,None,2024-10-10 21h38.35.899121 +0530,
19,0,19,0,31.650616400002036,,31.59975489997305,5,31.650616400002036,31.650616400002036,0.03568000002996996,32.941467500000726,[0.39166666666666666],[0.11481481481481481],[1],[0],[0],[1.3065771000110544],['target'],03,001,2024-10-10_21h38.24.478,VisualSearch,2024.1.5,None,2024-10-10 21h38.35.899121 +0530,
20,0,20,0,32.99162509996677,,32.94768169999588,5,32.99162509996677,32.99162509996677,0.03063829999882728,34.62363300001016,[0.12037037037037036],[0.487962962962963],[1],[0],[0],[1.6458943999605253],['target'],03,001,2024-10-10_21h38.24.478,VisualSearch,2024.1.5,None,2024-10-10 21h38.35.899121 +0530,
21,0,21,0,34.67672709998442,,34.62972969998373,5,34.67672709998442,34.67672709998442,0.030447299999650568,35.788393099966925,[-0.03333333333333333],[0.3],[1],[0],[0],[1.1288513999897987],['target'],03,001,2024-10-10_21h38.24.478,VisualSearch,2024.1.5,None,2024-10-10 21h38.35.899121 +0530,
22,0,22,0,35.86163870000746,,35.79460540000582,10,35.86163870000746,35.86163870000746,0.05289880000054836,37.157383500016294,[0.31574074074074077],[0.39166666666666666],[1],[0],[0],[1.3103334999759682],['target'],03,001,2024-10-10_21h38.24.478,VisualSearch,2024.1.5,None,2024-10-10 21h38.35.899121 +0530,
23,0,23,0,37.18215379997855,,37.16024559998186,5,37.18215379997855,37.18215379997855,0.013648899970576167,39.03552370000398,[-0.4064814814814815],[-0.20833333333333334],[1],[0],[0],[1.8613869000109844],['target'],03,001,2024-10-10_21h38.24.478,VisualSearch,2024.1.5,None,2024-10-10 21h38.35.899121 +0530,
24,0,24,0,39.09334540000418,,39.04168680001749,5,39.09334540000418,39.09334540000418,0.03728450002381578,40.667363599990495,[-0.15185185185185185],[-0.19166666666666668],[1],[0],[0],[1.5888489999924786],['target'],03,001,2024-10-10_21h38.24.478,VisualSearch,2024.1.5,None,2024-10-10 21h38.35.899121 +0530,
25,0,25,0,40.76068770000711,,40.67357330000959,10,40.76068770000711,40.76068770000711,0.06269739998970181,42.48208709998289,[0.06296296296296296],[-0.30648148148148147],[1],[0],[0],[1.7465516999945976],['target'],03,001,2024-10-10_21h38.24.478,VisualSearch,2024.1.5,None,2024-10-10 21h38.35.899121 +0530,
26,0,26,0,42.53977789997589,,42.48588860000018,10,42.53977789997589,42.53977789997589,0.03816469997400418,43.898125000006985,[-0.026851851851851852],[0.4111111111111111],[1],[0],[0],[1.3744631000445224],['target'],03,001,2024-10-10_21h38.24.478,VisualSearch,2024.1.5,None,2024-10-10 21h38.35.899121 +0530,
27,0,27,0,43.952267799992114,,43.90263149997918,10,43.952267799992114,43.952267799992114,0.03914590005297214,45.631747099978384,[0.31666666666666665],[0.17777777777777778],[1],[0],[0],[1.690101899963338],['target'],03,001,2024-10-10_21h38.24.478,VisualSearch,2024.1.5,None,2024-10-10 21h38.35.899121 +0530,
28,0,28,0,45.66977869998664,,45.63787829998182,5,45.66977869998664,45.66977869998664,0.022855699993669987,47.528249499970116,[0.4361111111111111],[-0.25462962962962965],[1],[0],[0],[1.8679202999919653],['target'],03,001,2024-10-10_21h38.24.478,VisualSearch,2024.1.5,None,2024-10-10 21h38.35.899121 +0530,
29,0,29,0,47.61228729999857,,47.53470000001835,10,47.61228729999857,47.61228729999857,0.06245149997994304,49.409245099988766,[0.08611111111111111],[-0.37962962962962965],[1],[0],[0],[1.8131261999951676],['target'],03,001,2024-10-10_21h38.24.478,VisualSearch,2024.1.5,None,2024-10-10 21h38.35.899121 +0530,
30,0,30,0,49.494563499989454,,49.41328789998079,10,49.494563499989454,49.494563499989454,0.057529999990947545,51.1936418999685,[-0.24722222222222223],[-0.3074074074074074],[1],[0],[0],[1.7231868000235409],['target'],03,001,2024-10-10_21h38.24.478,VisualSearch,2024.1.5,None,2024-10-10 21h38.35.899121 +0530,
31,0,31,0,51.23773799999617,,51.19935929996427,5,51.23773799999617,51.23773799999617,0.030019800004083663,52.78980019997107,[-0.29907407407407405],[-0.03518518518518519],[1],[0],[0],[1.5606727000558749],['target'],03,001,2024-10-10_21h38.24.478,VisualSearch,2024.1.5,None,2024-10-10 21h38.35.899121 +0530,
32,0,32,0,52.8652141999919,,52.796244099969044,10,52.8652141999919,52.8652141999919,0.05750659998739138,54.42038159997901,[0.025],[-0.09351851851851851],[1],[0],[0],[1.567626200034283],['target'],03,001,2024-10-10_21h38.24.478,VisualSearch,2024.1.5,None,2024-10-10 21h38.35.899121 +0530,
33,0,33,0,54.490779599989764,,54.42469519999577,10,54.490779599989764,54.490779599989764,0.050369200005661696,56.15230640000664,[0.46944444444444444],[0.1935185185185185],[1],[0],[0],[1.6775598000385799],['target'],03,001,2024-10-10_21h38.24.478,VisualSearch,2024.1.5,None,2024-10-10 21h38.35.899121 +0530,
34,0,34,0,56.1840120999841,,56.15615870000329,5,56.1840120999841,56.1840120999841,0.019362399994861335,57.51890889997594,[0.3972222222222222],[-0.1425925925925926],[1],[0],[0],[1.34332159999758],['target'],03,001,2024-10-10_21h38.24.478,VisualSearch,2024.1.5,None,2024-10-10 21h38.35.899121 +0530,
35,0,35,0,57.5661866000155,,57.525314099970274,5,57.5661866000155,57.5661866000155,0.031770600005984306,60.048861899995245,[-0.4287037037037037],[0.49722222222222223],[1],[0],[0],[2.4925769999972545],['target'],03,001,2024-10-10_21h38.24.478,VisualSearch,2024.1.5,None,2024-10-10 21h38.35.899121 +0530,
36,0,36,0,60.09894549997989,,60.05485509999562,5,60.09894549997989,60.09894549997989,0.032096599985379726,61.9147845999687,[0.29074074074074074],[-0.22870370370370371],[1],[0],[0],[1.8282619999954477],['target'],03,001,2024-10-10_21h38.24.478,VisualSearch,2024.1.5,None,2024-10-10 21h38.35.899121 +0530,
37,0,37,0,61.99281719996361,,61.92099159996724,10,61.99281719996361,61.99281719996361,0.05523679999168962,63.37920219998341,[-0.3592592592592593],[-0.14166666666666666],[1],[0],[0],[1.403693599975668],['target'],03,001,2024-10-10_21h38.24.478,VisualSearch,2024.1.5,None,2024-10-10 21h38.35.899121 +0530,
38,0,38,0,63.4239346999675,,63.38303019996965,10,63.4239346999675,63.4239346999675,0.03196579997893423,65.5430825999938,[0.2935185185185185],[-0.30092592592592593],[1],[0],[0],[2.1285098000080325],['target'],03,001,2024-10-10_21h38.24.478,VisualSearch,2024.1.5,None,2024-10-10 21h38.35.899121 +0530,
39,0,39,0,65.60400639998261,,65.54694759997074,10,65.60400639998261,65.60400639998261,0.03488560003461316,67.45890879997751,[0.10833333333333334],[0.21481481481481482],[1],[0],[0],[1.8771532999817282],['target'],03,001,2024-10-10_21h38.24.478,VisualSearch,2024.1.5,None,2024-10-10 21h38.35.899121 +0530,
40,0,40,0,67.49421550001716,,67.46285289997468,5,67.49421550001716,67.49421550001716,0.01914799999212846,69.29010360001121,[-0.29074074074074074],[-0.2833333333333333],[1],[0],[0],[1.8083661000127904],['target'],03,001,2024-10-10_21h38.24.478,VisualSearch,2024.1.5,None,2024-10-10 21h38.35.899121 +0530,
41,0,41,0,69.38425289996667,,69.297189600009,10,69.38425289996667,69.38425289996667,0.06204839999554679,71.83358699997189,[-0.17037037037037037],[0.4842592592592593],[1],[0],[0],[2.475103900011163],['target'],03,001,2024-10-10_21h38.24.478,VisualSearch,2024.1.5,None,2024-10-10 21h38.35.899121 +0530,
42,0,42,0,71.87816600000951,,71.83995270001469,5,71.87816600000951,71.87816600000951,0.02856549998978153,73.38685519999126,[0.24351851851851852],[0.2796296296296296],[1],[0],[0],[1.5187791000353172],['target'],03,001,2024-10-10_21h38.24.478,VisualSearch,2024.1.5,None,2024-10-10 21h38.35.899121 +0530,
43,0,43,0,73.45996070001274,,73.39302109996788,10,73.45996070001274,73.45996070001274,0.0516537000075914,75.80054769996786,[-0.16944444444444445],[-0.45555555555555555],[1],[0],[0],[2.3568316000164486],['target'],03,001,2024-10-10_21h38.24.478,VisualSearch,2024.1.5,None,2024-10-10 21h38.35.899121 +0530,
44,0,44,0,75.86919409997063,,75.8045614999719,10,75.86919409997063,75.86919409997063,0.04334400000516325,77.68952600000193,[-0.10833333333333334],[0.38796296296296295],[1],[0],[0],[1.8414855999872088],['target'],03,001,2024-10-10_21h38.24.478,VisualSearch,2024.1.5,None,2024-10-10 21h38.35.899121 +0530,
45,0,45,0,77.75785779999569,,77.69556379999267,10,77.75785779999569,77.75785779999569,0.04731360002188012,80.18681649997598,[0.3148148148148148],[-0.4685185185185185],[1],[0],[0],[2.4444487000000663],['target'],03,001,2024-10-10_21h38.24.478,VisualSearch,2024.1.5,None,2024-10-10 21h38.35.899121 +0530,
46,0,46,0,80.2462274999707,,80.19036439998308,10,80.2462274999707,80.2462274999707,0.03387690003728494,82.2108815999818,[-0.12314814814814815],[-0.3490740740740741],[1],[0],[0],[1.9866715000243858],['target'],03,001,2024-10-10_21h38.24.478,VisualSearch,2024.1.5,None,2024-10-10 21h38.35.899121 +0530,
47,0,47,0,82.2799384999671,,82.21675129997311,10,82.2799384999671,82.2799384999671,0.049198699998669326,84.3618046999909,[0.4685185185185185],[0.4203703703703704],[1],[0],[0],[2.0966525999829173],['target'],03,001,2024-10-10_21h38.24.478,VisualSearch,2024.1.5,None,2024-10-10 21h38.35.899121 +0530,
48,0,48,0,84.38836769998306,,84.36575850000372,5,84.38836769998306,84.38836769998306,0.016772500006482005,86.87462309998227,[-0.24259259259259258],[-0.462037037037037],[1],[0],[0],[2.492174300015904],['target'],03,001,2024-10-10_21h38.24.478,VisualSearch,2024.1.5,None,2024-10-10 21h38.35.899121 +0530,
49,0,49,0,86.96181499998784,,86.8807100999984,10,86.96181499998784,86.96181499998784,0.05980320001253858,88.522254600015,[0.1824074074074074],[0.18425925925925926],[1],[0],[0],[1.582471500034444],['target'],03,001,2024-10-10_21h38.24.478,VisualSearch,2024.1.5,None,2024-10-10 21h38.35.899121 +0530,
50,0,50,0,88.55913090001559,,88.52670679998118,5,88.55913090001559,88.55913090001559,0.021321200008969754,91.12037179997424,[0.49537037037037035],[-0.4148148148148148],[1],[0],[0],[2.572692600020673],['target'],03,001,2024-10-10_21h38.24.478,VisualSearch,2024.1.5,None,2024-10-10 21h38.35.899121 +0530,
51,0,51,0,91.17844390001846,,91.12692359997891,5,91.17844390001846,91.17844390001846,0.03625080001074821,92.98601270001382,[0.2101851851851852],[0.3074074074074074],[1],[0],[0],[1.8234409999568015],['target'],03,001,2024-10-10_21h38.24.478,VisualSearch,2024.1.5,None,2024-10-10 21h38.35.899121 +0530,
52,0,52,0,93.02368350001052,,92.9934016999905,5,93.02368350001052,93.02368350001052,0.0243369999807328,94.43361150001874,[0.29444444444444445],[0.14351851851851852],[1],[0],[0],[1.4165212999796495],['target'],03,001,2024-10-10_21h38.24.478,VisualSearch,2024.1.5,None,2024-10-10 21h38.35.899121 +0530,
53,0,53,0,94.48494629998459,,94.43701379996492,10,94.48494629998459,94.48494629998459,0.033529600012116134,96.18203630001517,[0.41944444444444445],[-0.05277777777777778],[1],[0],[0],[1.7118429000256583],['target'],03,001,2024-10-10_21h38.24.478,VisualSearch,2024.1.5,None,2024-10-10 21h38.35.899121 +0530,
54,0,54,0,96.20247089996701,,96.18429459998151,5,96.20247089996701,96.20247089996701,0.011064000020269305,98.0480465000146,[0.019444444444444445],[-0.04814814814814815],[1],[0],[0],[1.8522196999983862],['target'],03,001,2024-10-10_21h38.24.478,VisualSearch,2024.1.5,None,2024-10-10 21h38.35.899121 +0530,
55,0,55,0,98.11937099997886,,98.0543514000019,10,98.11937099997886,98.11937099997886,0.05209269997430965,99.90440589998616,[0.041666666666666664],[-0.25092592592592594],[1],[0],[0],[1.798468100023456],['target'],03,001,2024-10-10_21h38.24.478,VisualSearch,2024.1.5,None,2024-10-10 21h38.35.899121 +0530,
56,0,56,0,99.97217389999423,,99.91123349999543,10,99.97217389999423,99.97217389999423,0.048964599962346256,101.47658439999213,[-0.39814814814814814],[0.1111111111111111],[1],[0],[0],[1.5172722000279464],['target'],03,001,2024-10-10_21h38.24.478,VisualSearch,2024.1.5,None,2024-10-10 21h38.35.899121 +0530,
57,0,57,0,101.52987059997395,,101.48103789996821,10,101.52987059997395,101.52987059997395,0.03479399997740984,103.39195279998239,[0.07777777777777778],[-0.1648148148148148],[1],[0],[0],[1.8762322000111453],['target'],03,001,2024-10-10_21h38.24.478,VisualSearch,2024.1.5,None,2024-10-10 21h38.35.899121 +0530,
58,0,58,0,103.42520779999904,,103.39550990000134,5,103.42520779999904,103.42520779999904,0.019531600002665073,104.72454419999849,[0.11018518518518519],[0.18981481481481483],[1],[0],[0],[1.3093915000208654],['target'],03,001,2024-10-10_21h38.24.478,VisualSearch,2024.1.5,None,2024-10-10 21h38.35.899121 +0530,
59,0,59,0,104.77333160000853,,104.73086060001515,5,104.77333160000853,104.77333160000853,0.029855299973860383,107.25443049997557,[0.29259259259259257],[0.5],[1],[0],[0],[2.4946982999681495],['target'],03,001,2024-10-10_21h38.24.478,VisualSearch,2024.1.5,None,2024-10-10 21h38.35.899121 +0530,
60,0,60,0,107.32260879996466,,107.25859380001202,10,107.32260879996466,107.32260879996466,0.05010890000266954,109.05245479999576,[-0.2564814814814815],[0.001851851851851852],[1],[0],[0],[1.7442594999447465],['target'],03,001,2024-10-10_21h38.24.478,VisualSearch,2024.1.5,None,2024-10-10 21h38.35.899121 +0530,
61,0,61,0,109.11467729997821,,109.05647750000935,10,109.11467729997821,109.11467729997821,0.040447200008202344,111.78332489996683,[-0.05925925925925926],[-0.4564814814814815],[1],[0],[0],[2.686909000040032],['target'],03,001,2024-10-10_21h38.24.478,VisualSearch,2024.1.5,None,2024-10-10 21h38.35.899121 +0530,
62,0,62,0,111.83106769999722,,111.78634280001279,10,111.83106769999722,111.83106769999722,0.032491400022991,113.34826409997186,[-0.37962962962962965],[-0.19074074074074074],[1],[0],[0],[1.5296774999587797],['target'],03,001,2024-10-10_21h38.24.478,VisualSearch,2024.1.5,None,2024-10-10 21h38.35.899121 +0530,
63,0,63,0,113.38846300001023,,113.35096109996084,10,113.38846300001023,113.38846300001023,0.027433200040832162,115.3469776000129,[0.2898148148148148],[-0.21296296296296297],[1],[0],[0],[1.9687279000063427],['target'],03,001,2024-10-10_21h38.24.478,VisualSearch,2024.1.5,None,2024-10-10 21h38.35.899121 +0530,
64,0,64,0,115.37810209998861,,115.3510545999743,5,115.37810209998861,115.37810209998861,0.0195586999761872,117.1788416999625,[-0.3574074074074074],[-0.1675925925925926],[1],[0],[0],[1.8084814000176266],['target'],03,001,2024-10-10_21h38.24.478,VisualSearch,2024.1.5,None,2024-10-10 21h38.35.899121 +0530,
65,0,65,0,117.26133339997614,,117.18483839998953,10,117.26133339997614,117.26133339997614,0.057165400008670986,119.02653099998133,[0.10092592592592593],[-0.2064814814814815],[1],[0],[0],[1.7854367999825627],['target'],03,001,2024-10-10_21h38.24.478,VisualSearch,2024.1.5,None,2024-10-10 21h38.35.899121 +0530,
66,0,66,0,119.0657063999679,,119.03072079998674,5,119.0657063999679,119.0657063999679,0.02314710000064224,120.59246919996804,[0.29814814814814816],[-0.0787037037037037],[1],[0],[0],[1.5388572000083514],['target'],03,001,2024-10-10_21h38.24.478,VisualSearch,2024.1.5,None,2024-10-10 21h38.35.899121 +0530,
67,0,67,0,120.64397209999152,,120.59830750001129,5,120.64397209999152,120.64397209999152,0.03193029999965802,122.19176049996167,[0.44814814814814813],[-0.19537037037037036],[1],[0],[0],[1.5619821000145748],['target'],03,001,2024-10-10_21h38.24.478,VisualSearch,2024.1.5,None,2024-10-10 21h38.35.899121 +0530,
68,0,68,0,122.24390449997736,,122.19794009998441,5,122.24390449997736,122.24390449997736,0.03233759995782748,124.05638359999284,[-0.37407407407407406],[-0.05277777777777778],[1],[0],[0],[1.826754899986554],['target'],03,001,2024-10-10_21h38.24.478,VisualSearch,2024.1.5,None,2024-10-10 21h38.35.899121 +0530,
69,0,69,0,124.13963449996663,,124.06263639999088,10,124.13963449996663,124.13963449996663,0.057965299987699836,125.7872527000145,[0.017592592592592594],[0.18981481481481483],[1],[0],[0],[1.6673689999734052],['target'],03,001,2024-10-10_21h38.24.478,VisualSearch,2024.1.5,None,2024-10-10 21h38.35.899121 +0530,
70,0,70,0,125.85189589997754,,125.79104619997088,10,125.85189589997754,125.85189589997754,0.048597300017718226,127.80224859999726,[-0.44537037037037036],[-0.41203703703703703],[1],[0],[0],[1.9628743000212125],['target'],03,001,2024-10-10_21h38.24.478,VisualSearch,2024.1.5,None,2024-10-10 21h38.35.899121 +0530,
71,0,71,0,127.87342059996445,,127.8084089999902,10,127.87342059996445,127.87342059996445,0.04951330000767484,129.61188989999937,[0.4537037037037037],[-0.18518518518518517],[1],[0],[0],[1.7546531000407413],['target'],03,001,2024-10-10_21h38.24.478,VisualSearch,2024.1.5,None,2024-10-10 21h38.35.899121 +0530,
72,0,72,0,129.66216150001856,,129.61603749997448,10,129.66216150001856,129.66216150001856,0.0352769999881275,131.39693149999948,[0.45185185185185184],[-0.062037037037037036],[1],[0],[0],[1.7458439999609254],['target'],03,001,2024-10-10_21h38.24.478,VisualSearch,2024.1.5,None,2024-10-10 21h38.35.899121 +0530,
73,0,73,0,131.44421009998769,,131.40278790000593,5,131.44421009998769,131.44421009998769,0.028860599966719747,133.2309690999682,[0.14907407407407408],[0.37407407407407406],[1],[0],[0],[1.7997737000114284],['target'],03,001,2024-10-10_21h38.24.478,VisualSearch,2024.1.5,None,2024-10-10 21h38.35.899121 +0530,
74,0,74,0,133.28614420001395,,133.23845229996368,5,133.28614420001395,133.28614420001395,0.035103000001981854,135.51223819999723,[-0.0712962962962963],[-0.4601851851851852],[1],[0],[0],[2.239579799992498],['target'],03,001,2024-10-10_21h38.24.478,VisualSearch,2024.1.5,None,2024-10-10 21h38.35.899121 +0530,
75,0,75,0,135.59255060000578,,135.52002739999443,10,135.59255060000578,135.59255060000578,0.0598370999796316,137.3605157000129,[-0.4074074074074074],[-0.3712962962962963],[1],[0],[0],[1.7820456000044942],['target'],03,001,2024-10-10_21h38.24.478,VisualSearch,2024.1.5,None,2024-10-10 21h38.35.899121 +0530,
76,0,76,0,137.42020709998906,,137.36481930001173,10,137.42020709998906,137.42020709998906,0.040479399962350726,139.32517749996623,[0.44722222222222224],[-0.05185185185185185],[1],[0],[0],[1.9201593000325374],['target'],03,001,2024-10-10_21h38.24.478,VisualSearch,2024.1.5,None,2024-10-10 21h38.35.899121 +0530,
77,0,77,0,139.38069489999907,,139.3291368999635,10,139.38069489999907,139.38069489999907,0.03745210001943633,140.93953739997232,[0.08611111111111111],[-0.06018518518518518],[1],[0],[0],[1.573384499992244],['target'],03,001,2024-10-10_21h38.24.478,VisualSearch,2024.1.5,None,2024-10-10 21h38.35.899121 +0530,
78,0,78,0,140.99827979999827,,140.943815000006,10,140.99827979999827,140.99827979999827,0.0391117999679409,142.47185460000765,[0.36944444444444446],[-0.009259259259259259],[1],[0],[0],[1.4892889999900945],['target'],03,001,2024-10-10_21h38.24.478,VisualSearch,2024.1.5,None,2024-10-10 21h38.35.899121 +0530,
79,0,79,0,142.52807140001096,,142.4824360999628,5,142.52807140001096,142.52807140001096,0.037344800017308444,143.92132049996872,[0.21203703703703702],[-0.1712962962962963],[1],[0],[0],[1.4032542000059038],['target'],03,001,2024-10-10_21h38.24.478,VisualSearch,2024.1.5,None,2024-10-10 21h38.35.899121 +0530,
80,0,80,0,143.96531759999925,,143.9276432999759,5,143.96531759999925,143.96531759999925,0.030714499996975064,145.7196773000178,[-0.41759259259259257],[0.44537037037037036],[1],[0],[0],[1.7619801999535412],['target'],03,001,2024-10-10_21h38.24.478,VisualSearch,2024.1.5,None,2024-10-10 21h38.35.899121 +0530,
81,0,81,0,145.79263799998444,,145.72632640000666,10,145.79263799998444,145.79263799998444,0.053095399984158576,147.30036609998206,[0.10555555555555556],[0.02962962962962963],[1],[0],[0],[1.522261600010097],['target'],03,001,2024-10-10_21h38.24.478,VisualSearch,2024.1.5,None,2024-10-10 21h38.35.899121 +0530,
82,0,82,0,147.36526379996212,,147.3044936999795,10,147.36526379996212,147.36526379996212,0.0450122999609448,149.88157430000138,[0.41944444444444445],[0.42962962962962964],[1],[0],[0],[2.5325063000200316],['target'],03,001,2024-10-10_21h38.24.478,VisualSearch,2024.1.5,None,2024-10-10 21h38.35.899121 +0530,
83,0,83,0,149.91077439999208,,149.88521749997744,5,149.91077439999208,149.91077439999208,0.01785629999358207,151.41380290000234,[0.43796296296296294],[0.11018518518518519],[1],[0],[0],[1.5108717000111938],['target'],03,001,2024-10-10_21h38.24.478,VisualSearch,2024.1.5,None,2024-10-10 21h38.35.899121 +0530,
84,0,84,0,151.4661877999897,,151.42080580000766,5,151.4661877999897,151.4661877999897,0.031369299977086484,152.44657989998814,[0.4703703703703704],[0.11851851851851852],[1],[0],[0],[0.9952783000189811],['target'],03,001,2024-10-10_21h38.24.478,VisualSearch,2024.1.5,None,2024-10-10 21h38.35.899121 +0530,
85,0,85,0,152.50235249998514,,152.4542965000146,5,152.50235249998514,152.50235249998514,0.033394699974451214,154.4444970000186,[-0.3731481481481482],[-0.2759259259259259],[1],[0],[0],[1.9575854999711737],['target'],03,001,2024-10-10_21h38.24.478,VisualSearch,2024.1.5,None,2024-10-10 21h38.35.899121 +0530,
86,0,86,0,154.51630509999814,,154.45090110000456,10,154.51630509999814,154.51630509999814,0.05248030001530424,156.0683815999655,[0.03148148148148148],[0.03981481481481482],[1],[0],[0],[1.5658448000322096],['target'],03,001,2024-10-10_21h38.24.478,VisualSearch,2024.1.5,None,2024-10-10 21h38.35.899121 +0530,
87,0,87,0,156.11457739997422,,156.07498219999252,5,156.11457739997422,156.11457739997422,0.029733399976976216,157.85832279996248,[-0.3787037037037037],[-0.40185185185185185],[1],[0],[0],[1.7542844000272453],['target'],03,001,2024-10-10_21h38.24.478,VisualSearch,2024.1.5,None,2024-10-10 21h38.35.899121 +0530,
88,0,88,0,157.90779959998326,,157.8647503000102,5,157.90779959998326,157.90779959998326,0.03065139998216182,159.3894539999892,[0.004629629629629629],[-0.2916666666666667],[1],[0],[0],[1.4949137999792583],['target'],03,001,2024-10-10_21h38.24.478,VisualSearch,2024.1.5,None,2024-10-10 21h38.35.899121 +0530,
89,0,89,0,159.46175339998445,,159.3970444999868,10,159.46175339998445,159.46175339998445,0.05184460000600666,161.45364949997747,[-0.4148148148148148],[0.24814814814814815],[1],[0],[0],[2.0056914999731816],['target'],03,001,2024-10-10_21h38.24.478,VisualSearch,2024.1.5,None,2024-10-10 21h38.35.899121 +0530,
90,0,90,0,161.5084072999889,,161.4573569999775,10,161.5084072999889,161.5084072999889,0.03675150003982708,164.30108589999145,[0.49166666666666664],[0.3111111111111111],[1],[0],[0],[2.807364200009033],['target'],03,001,2024-10-10_21h38.24.478,VisualSearch,2024.1.5,None,2024-10-10 21h38.35.899121 +0530,
91,0,91,0,164.33509010000853,,164.3054598000017,5,164.33509010000853,164.33509010000853,0.020688700024038553,166.33342789998278,[-0.13148148148148148],[-0.21851851851851853],[1],[0],[0],[2.007520899991505],['target'],03,001,2024-10-10_21h38.24.478,VisualSearch,2024.1.5,None,2024-10-10 21h38.35.899121 +0530,
92,0,92,0,166.39888359996257,,166.33951999997953,10,166.39888359996257,166.39888359996257,0.047764499962795526,167.9979847999639,[0.2111111111111111],[0.3888888888888889],[1],[0],[0],[1.6115074999979697],['target'],03,001,2024-10-10_21h38.24.478,VisualSearch,2024.1.5,None,2024-10-10 21h38.35.899121 +0530,
93,0,93,0,168.03299350000452,,168.00228949997108,5,168.03299350000452,168.03299350000452,0.0215574000030756,169.59648790000938,[0.11203703703703703],[-0.004629629629629629],[1],[0],[0],[1.5730566999991424],['target'],03,001,2024-10-10_21h38.24.478,VisualSearch,2024.1.5,None,2024-10-10 21h38.35.899121 +0530,
94,0,94,0,169.65839659998892,,169.60083840001607,10,169.65839659998892,169.65839659998892,0.04249560000607744,171.3278593000141,[-0.09351851851851851],[-0.2777777777777778],[1],[0],[0],[1.6850437999819405],['target'],03,001,2024-10-10_21h38.24.478,VisualSearch,2024.1.5,None,2024-10-10 21h38.35.899121 +0530,
95,0,95,0,171.38750349998008,,171.3322066999972,10,171.38750349998008,171.38750349998008,0.03799159999471158,172.99944619997405,[0.21944444444444444],[-0.42314814814814816],[1],[0],[0],[1.6295309000415727],['target'],03,001,2024-10-10_21h38.24.478,VisualSearch,2024.1.5,None,2024-10-10 21h38.35.899121 +0530,
96,0,96,0,173.03454500000225,,173.00355319998926,5,173.03454500000225,173.03454500000225,0.021418899996206164,175.20938139996724,[-0.15925925925925927],[-0.45],[1],[0],[0],[2.184332600038033],['target'],03,001,2024-10-10_21h38.24.478,VisualSearch,2024.1.5,None,2024-10-10 21h38.35.899121 +0530,
97,0,97,0,175.25853180000558,,175.2156436999794,5,175.25853180000558,175.25853180000558,0.03437779995147139,177.67251309996936,[0.14629629629629629],[0.45092592592592595],[1],[0],[0],[2.4232214000076056],['target'],03,001,2024-10-10_21h38.24.478,VisualSearch,2024.1.5,None,2024-10-10 21h38.35.899121 +0530,
98,0,98,0,177.72514409996802,,177.67970420001075,5,177.72514409996802,177.72514409996802,0.032283400010783225,178.97138000000268,[-0.18055555555555555],[-0.08981481481481482],[1],[0],[0],[1.2603319000336342],['target'],03,001,2024-10-10_21h38.24.478,VisualSearch,2024.1.5,None,2024-10-10 21h38.35.899121 +0530,
99,0,99,0,179.01492629997665,,178.97760990000097,5,179.01492629997665,179.01492629997665,0.028786699986085296,180.78626789996633,[-0.001851851851851852],[0.07037037037037037],[1],[0],[0],[1.780417900008615],['target'],03,001,2024-10-10_21h38.24.478,VisualSearch,2024.1.5,None,2024-10-10 21h38.35.899121 +0530,
100,0,100,0,180.85395899997093,,180.7924225999741,10,180.85395899997093,180.85395899997093,0.04968290001852438,182.8001664999756,[-0.4925925925925926],[0.024074074074074074],[1],[0],[0],[1.9590790000511333],['target'],03,001,2024-10-10_21h38.24.478,VisualSearch,2024.1.5,None,2024-10-10 21h38.35.899121 +0530,
101,0,101,0,182.82264369999757,,182.80303359997924,5,182.82264369999757,182.82264369999757,0.012951399956364185,184.88193430000683,[0.14537037037037037],[-0.19444444444444445],[1],[0],[0],[2.0662408999633044],['target'],03,001,2024-10-10_21h38.24.478,VisualSearch,2024.1.5,None,2024-10-10 21h38.35.899121 +0530,
102,0,102,0,184.9110855999752,,184.88413989997935,5,184.9110855999752,184.9110855999752,0.014575700042769313,186.61433259997284,[-0.3055555555555556],[0.30925925925925923],[1],[0],[0],[1.7153516999678686],['target'],03,001,2024-10-10_21h38.24.478,VisualSearch,2024.1.5,None,2024-10-10 21h38.35.899121 +0530,
103,0,103,0,186.68032829998992,,186.62105979997432,10,186.68032829998992,186.68032829998992,0.04736520000733435,188.39563699997962,[-0.20925925925925926],[-0.22592592592592592],[1],[0],[0],[1.7281760000041686],['target'],03,001,2024-10-10_21h38.24.478,VisualSearch,2024.1.5,None,2024-10-10 21h38.35.899121 +0530,
104,0,104,0,188.42991629999597,,188.39988509996329,5,188.42991629999597,188.42991629999597,0.02029040001798421,190.06127850001212,[-0.2740740740740741],[-0.03425925925925926],[1],[0],[0],[1.6412440999993123],['target'],03,001,2024-10-10_21h38.24.478,VisualSearch,2024.1.5,None,2024-10-10 21h38.35.899121 +0530,
105,0,105,0,190.1043577999808,,190.0669606999727,5,190.1043577999808,190.1043577999808,0.029401499952655286,191.8263769999612,[-0.3277777777777778],[0.3685185185185185],[1],[0],[0],[1.7305116000352427],['target'],03,001,2024-10-10_21h38.24.478,VisualSearch,2024.1.5,None,2024-10-10 21h38.35.899121 +0530,
106,0,106,0,191.90411429997766,,191.83242069999687,10,191.90411429997766,191.90411429997766,0.05875419999938458,194.31416090001585,[0.30277777777777776],[0.4601851851851852],[1],[0],[0],[2.4237303000409156],['target'],03,001,2024-10-10_21h38.24.478,VisualSearch,2024.1.5,None,2024-10-10 21h38.35.899121 +0530,
107,0,107,0,194.34430040000007,,194.31794639996951,5,194.34430040000007,194.34430040000007,0.018064199946820736,195.70627929997863,[-0.22777777777777777],[0.1787037037037037],[1],[0],[0],[1.3704013000242412],['target'],03,001,2024-10-10_21h38.24.478,VisualSearch,2024.1.5,None,2024-10-10 21h38.35.899121 +0530,
108,0,108,0,195.78467299998738,,195.71361849998357,10,195.78467299998738,195.78467299998738,0.05855989997508004,197.18775139999343,[0.03425925925925926],[0.3768518518518518],[1],[0],[0],[1.4164254000061192],['target'],03,001,2024-10-10_21h38.24.478,VisualSearch,2024.1.5,None,2024-10-10 21h38.35.899121 +0530,
109,0,109,0,197.24238459998742,,197.19184879999375,10,197.24238459998742,197.24238459998742,0.037490000016987324,198.83572360000107,[0.19444444444444445],[-0.07314814814814814],[1],[0],[0],[1.6067460000049323],['target'],03,001,2024-10-10_21h38.24.478,VisualSearch,2024.1.5,None,2024-10-10 21h38.35.899121 +0530,
110,0,110,0,198.88944040000206,,198.8396429999848,10,198.88944040000206,198.88944040000206,0.0368101000203751,200.76716549997218,[0.4787037037037037],[0.4361111111111111],[1],[0],[0],[1.891157199977897],['target'],03,001,2024-10-10_21h38.24.478,VisualSearch,2024.1.5,None,2024-10-10 21h38.35.899121 +0530,
111,0,111,0,200.8013465999975,,200.7714219999616,5,200.8013465999975,200.8013465999975,0.020270899985916913,202.5665334999794,[0.09074074074074075],[-0.07962962962962963],[1],[0],[0],[1.7750059999525547],['target'],03,001,2024-10-10_21h38.24.478,VisualSearch,2024.1.5,None,2024-10-10 21h38.35.899121 +0530,
112,0,112,0,202.65237209998304,,202.57277500000782,10,202.65237209998304,202.65237209998304,0.06011170003330335,204.73024379997514,[-0.4462962962962963],[-0.2935185185185185],[1],[0],[0],[2.098234000033699],['target'],03,001,2024-10-10_21h38.24.478,VisualSearch,2024.1.5,None,2024-10-10 21h38.35.899121 +0530,
113,0,113,0,204.79233399999794,,204.7343731999863,10,204.79233399999794,204.79233399999794,0.041897599992807955,206.6289737999905,[0.48055555555555557],[0.04722222222222222],[1],[0],[0],[1.8528973999782465],['target'],03,001,2024-10-10_21h38.24.478,VisualSearch,2024.1.5,None,2024-10-10 21h38.35.899121 +0530,
114,0,114,0,206.68786030000774,,206.63308980001602,10,206.68786030000774,206.68786030000774,0.03970399999525398,208.2097822999931,[0.16018518518518518],[0.14166666666666666],[1],[0],[0],[1.537453600030858],['target'],03,001,2024-10-10_21h38.24.478,VisualSearch,2024.1.5,None,2024-10-10 21h38.35.899121 +0530,
115,0,115,0,208.2465578999836,,208.21270390000427,10,208.2465578999836,208.2465578999836,0.024078599992208183,210.20909309998387,[0.18611111111111112],[-0.3333333333333333],[1],[0],[0],[1.9723630000371486],['target'],03,001,2024-10-10_21h38.24.478,VisualSearch,2024.1.5,None,2024-10-10 21h38.35.899121 +0530,
116,0,116,0,210.2657659999677,,210.21303959999932,10,210.2657659999677,210.2657659999677,0.037676600040867925,213.43879250000464,[-0.3314814814814815],[0.25092592592592594],[1],[0],[0],[3.1884497000137344],['target'],03,001,2024-10-10_21h38.24.478,VisualSearch,2024.1.5,None,2024-10-10 21h38.35.899121 +0530,
117,0,117,0,213.47020209999755,,213.44279860000825,5,213.47020209999755,213.47020209999755,0.019193599990103394,214.83873550000135,[-0.2898148148148148],[-0.2222222222222222],[1],[0],[0],[1.376758600003086],['target'],03,001,2024-10-10_21h38.24.478,VisualSearch,2024.1.5,None,2024-10-10 21h38.35.899121 +0530,
118,0,118,0,214.9088302999735,,214.84542399999918,10,214.9088302999735,214.9088302999735,0.05010879994370043,216.46885229996406,[-0.37962962962962965],[-0.10740740740740741],[1],[0],[0],[1.574209599988535],['target'],03,001,2024-10-10_21h38.24.478,VisualSearch,2024.1.5,None,2024-10-10 21h38.35.899121 +0530,
119,0,119,0,216.5292360999738,,216.47303489997284,10,216.5292360999738,216.5292360999738,0.040543299983255565,217.85712840000633,[-0.2740740740740741],[0.125],[1],[0],[0],[1.3438701000413857],['target'],03,001,2024-10-10_21h38.24.478,VisualSearch,2024.1.5,None,2024-10-10 21h38.35.899121 +0530,
120,0,120,0,217.89773440000135,,217.8610706999898,10,217.89773440000135,217.89773440000135,0.028012200025841594,219.54964869999094,[0.06944444444444445],[0.3388888888888889],[1],[0],[0],[1.6610389999696054],['target'],03,001,2024-10-10_21h38.24.478,VisualSearch,2024.1.5,None,2024-10-10 21h38.35.899121 +0530,
121,0,121,0,219.61660549999215,,219.55305739998585,10,219.61660549999215,219.61660549999215,0.050064300012309104,220.69860730000073,[0.0712962962962963],[0.2851851851851852],[1],[0],[0],[1.0958504999871366],['target'],03,001,2024-10-10_21h38.24.478,VisualSearch,2024.1.5,None,2024-10-10 21h38.35.899121 +0530,
122,0,122,0,220.73161949997302,,220.7029514000169,5,220.73161949997302,220.73161949997302,0.020540099998470396,222.73022019997006,[-0.2601851851851852],[-0.16111111111111112],[1],[0],[0],[2.007163300004322],['target'],03,001,2024-10-10_21h38.24.478,VisualSearch,2024.1.5,None,2024-10-10 21h38.35.899121 +0530,
123,0,123,0,222.7571966999676,,222.73305490001803,5,222.7571966999676,222.7571966999676,0.011208800016902387,224.76188229996478,[0.2777777777777778],[-0.19074074074074074],[1],[0],[0],[2.0176231000223197],['target'],03,001,2024-10-10_21h38.24.478,VisualSearch,2024.1.5,None,2024-10-10 21h38.35.899121 +0530,
124,0,124,0,224.79262759996345,,224.76815229997737,5,224.79262759996345,224.79262759996345,0.019879499974194914,226.9938585999771,[0.21296296296296297],[0.29907407407407405],[1],[0],[0],[2.2062399000278674],['target'],03,001,2024-10-10_21h38.24.478,VisualSearch,2024.1.5,None,2024-10-10 21h38.35.899121 +0530,
125,0,125,0,227.0456351999892,,227.00016769999638,5,227.0456351999892,227.0456351999892,0.03210039995610714,228.2757311000023,[0.33055555555555555],[0.21851851851851853],[1],[0],[0],[1.2439285999862477],['target'],03,001,2024-10-10_21h38.24.478,VisualSearch,2024.1.5,None,2024-10-10 21h38.35.899121 +0530,
126,0,126,0,228.32839320000494,,228.28204889997141,5,228.32839320000494,228.32839320000494,0.03249309997772798,230.30642169999192,[-0.46111111111111114],[0.4351851851851852],[1],[0],[0],[1.9929592999978922],['target'],03,001,2024-10-10_21h38.24.478,VisualSearch,2024.1.5,None,2024-10-10 21h38.35.899121 +0530,
127,0,127,0,230.33233830000972,,230.30973899998935,5,230.33233830000972,230.33233830000972,0.015491300029680133,231.8557276999927,[-0.42685185185185187],[-0.32592592592592595],[1],[0],[0],[1.5308904999983497],['target'],03,001,2024-10-10_21h38.24.478,VisualSearch,2024.1.5,None,2024-10-10 21h38.35.899121 +0530,
128,0,128,0,231.8920223999885,,231.85816999996314,10,231.8920223999885,231.8920223999885,0.020876700000371784,233.9871924999752,[0.42777777777777776],[-0.2111111111111111],[1],[0],[0],[2.1079897999879904],['target'],03,001,2024-10-10_21h38.24.478,VisualSearch,2024.1.5,None,2024-10-10 21h38.35.899121 +0530,
129,0,129,0,234.07707659999141,,233.9936826999765,10,234.07707659999141,234.07707659999141,0.05903419997775927,235.96725879999576,[-0.45],[0.20462962962962963],[1],[0],[0],[1.915302800014615],['target'],03,001,2024-10-10_21h38.24.478,VisualSearch,2024.1.5,None,2024-10-10 21h38.35.899121 +0530,
130,0,130,0,236.01144490001025,,235.97346000000834,5,236.01144490001025,236.01144490001025,0.029588499979581684,237.68336339999223,[-0.225],[0.14444444444444443],[1],[0],[0],[1.6811428999644704],['target'],03,001,2024-10-10_21h38.24.478,VisualSearch,2024.1.5,None,2024-10-10 21h38.35.899121 +0530,
131,0,131,0,237.73496119998163,,237.68980220000958,5,237.73496119998163,237.73496119998163,0.030914500006474555,239.08200659998693,[0.06851851851851852],[0.3925925925925926],[1],[0],[0],[1.3618579999892972],['target'],03,001,2024-10-10_21h38.24.478,VisualSearch,2024.1.5,None,2024-10-10 21h38.35.899121 +0530,
132,0,132,0,239.1483828999917,,239.08804780000355,10,239.1483828999917,239.1483828999917,0.048007600009441376,240.7794627000112,[0.34814814814814815],[0.20555555555555555],[1],[0],[0],[1.6443601999781094],['target'],03,001,2024-10-10_21h38.24.478,VisualSearch,2024.1.5,None,2024-10-10 21h38.35.899121 +0530,
133,0,133,0,240.81750489998376,,240.7836687999661,5,240.81750489998376,240.81750489998376,0.023755599977448583,243.19514660001732,[-0.24722222222222223],[0.4703703703703704],[1],[0],[0],[2.387895699997898],['target'],03,001,2024-10-10_21h38.24.478,VisualSearch,2024.1.5,None,2024-10-10 21h38.35.899121 +0530,
134,0,134,0,243.2390631000162,,243.2016195000033,5,243.2390631000162,243.2390631000162,0.02962790004676208,244.71042509999825,[0.32314814814814813],[0.044444444444444446],[1],[0],[0],[1.4798211999586783],['target'],03,001,2024-10-10_21h38.24.478,VisualSearch,2024.1.5,None,2024-10-10 21h38.35.899121 +0530,
135,0,135,0,244.78518399997847,,244.71693260001484,10,244.78518399997847,244.78518399997847,0.05455449997680262,246.59164399997098,[-0.1527777777777778],[-0.44537037037037036],[1],[0],[0],[1.8209267999627627],['target'],03,001,2024-10-10_21h38.24.478,VisualSearch,2024.1.5,None,2024-10-10 21h38.35.899121 +0530,
136,0,136,0,246.6207622999791,,246.59540280001238,5,246.6207622999791,246.6207622999791,0.018621199997141957,248.92305460001808,[0.20555555555555555],[0.3648148148148148],[1],[0],[0],[2.309095199976582],['target'],03,001,2024-10-10_21h38.24.478,VisualSearch,2024.1.5,None,2024-10-10 21h38.35.899121 +0530,
137,0,137,0,248.99081300001126,,248.92975119996117,10,248.99081300001126,248.99081300001126,0.049972400011029094,252.22052969998913,[-0.24166666666666667],[0.4861111111111111],[1],[0],[0],[3.241870799975004],['target'],03,001,2024-10-10_21h38.24.478,VisualSearch,2024.1.5,None,2024-10-10 21h38.35.899121 +0530,
138,0,138,0,252.25288669997826,,252.22458949999418,5,252.25288669997826,252.25288669997826,0.019693899957928807,253.5690472999704,[-0.024074074074074074],[0.21388888888888888],[1],[0],[0],[1.324669299996458],['target'],03,001,2024-10-10_21h38.24.478,VisualSearch,2024.1.5,None,2024-10-10 21h38.35.899121 +0530,
139,0,139,0,253.61832909996156,,253.57533859997056,5,253.61832909996156,253.61832909996156,0.033588699996471405,255.0003851999645,[-0.2074074074074074],[0.45],[1],[0],[0],[1.3921398000093177],['target'],03,001,2024-10-10_21h38.24.478,VisualSearch,2024.1.5,None,2024-10-10 21h38.35.899121 +0530,
140,0,140,0,255.05366309999954,,255.00743830000283,5,255.05366309999954,255.05366309999954,0.031735199969261885,257.3491836999892,[0.45740740740740743],[-0.0824074074074074],[1],[0],[0],[2.3106753999600187],['target'],03,001,2024-10-10_21h38.24.478,VisualSearch,2024.1.5,None,2024-10-10 21h38.35.899121 +0530,
141,0,141,0,257.40248310001334,,257.3558417999884,5,257.40248310001334,257.40248310001334,0.03396879998035729,258.946140999964,[-0.046296296296296294],[-0.27870370370370373],[1],[0],[0],[1.557316999998875],['target'],03,001,2024-10-10_21h38.24.478,VisualSearch,2024.1.5,None,2024-10-10 21h38.35.899121 +0530,
142,0,142,0,258.97066880000057,,258.9505434000166,5,258.97066880000057,258.97066880000057,0.015482000017073005,261.41201039997395,[-0.4824074074074074],[0.005555555555555556],[1],[0],[0],[2.4458408000064082],['target'],03,001,2024-10-10_21h38.24.478,VisualSearch,2024.1.5,None,2024-10-10 21h38.35.899121 +0530,
143,0,143,0,261.5030557999853,,261.41825970000355,10,261.5030557999853,261.5030557999853,0.06383020000066608,263.7743479000055,[-0.25555555555555554],[-0.003703703703703704],[1],[0],[0],[2.2933968000579625],['target'],03,001,2024-10-10_21h38.24.478,VisualSearch,2024.1.5,None,2024-10-10 21h38.35.899121 +0530,
144,0,144,0,263.80849429999944,,263.7766391999903,10,263.80849429999944,263.80849429999944,0.02185640000971034,266.33896059996914,[0.062037037037037036],[-0.4148148148148148],[1],[0],[0],[2.5405815999838524],['target'],03,001,2024-10-10_21h38.24.478,VisualSearch,2024.1.5,None,2024-10-10 21h38.35.899121 +0530,
145,0,145,0,266.39293739997083,,266.34133099997416,10,266.39293739997083,266.39293739997083,0.03702339995652437,268.2550567999715,[0.1925925925925926],[0.4787037037037037],[1],[0],[0],[1.8766796999843791],['target'],03,001,2024-10-10_21h38.24.478,VisualSearch,2024.1.5,None,2024-10-10 21h38.35.899121 +0530,
146,0,146,0,268.2739792999928,,268.2573088000063,5,268.2739792999928,268.2739792999928,0.01026760000968352,270.3698097000015,[0.45740740740740743],[-0.39814814814814814],[1],[0],[0],[2.1018203999847174],['target'],03,001,2024-10-10_21h38.24.478,VisualSearch,2024.1.5,None,2024-10-10 21h38.35.899121 +0530,
147,0,147,0,270.41639039997244,,270.3763755999971,5,270.41639039997244,270.41639039997244,0.03125150001142174,272.15162329998566,[0.3101851851851852],[-0.175],[1],[0],[0],[1.7445558000472374],['target'],03,001,2024-10-10_21h38.24.478,VisualSearch,2024.1.5,None,2024-10-10 21h38.35.899121 +0530,
148,0,148,0,272.20305219996953,,272.1578392999945,5,272.20305219996953,272.20305219996953,0.03279389999806881,273.9002379999729,[-0.002777777777777778],[-0.07777777777777778],[1],[0],[0],[1.7101293000159785],['target'],03,001,2024-10-10_21h38.24.478,VisualSearch,2024.1.5,None,2024-10-10 21h38.35.899121 +0530,
149,0,149,0,273.9719262999715,,273.9068512999802,10,273.9719262999715,273.9719262999715,0.053418299998156726,275.88198309997097,[0.3768518518518518],[0.4074074074074074],[1],[0],[0],[1.9226182000129484],['target'],03,001,2024-10-10_21h38.24.478,VisualSearch,2024.1.5,None,2024-10-10 21h38.35.899121 +0530,
150,0,150,0,275.9321608999744,,275.88794519996736,5,275.9321608999744,275.9321608999744,0.03177549998508766,277.39738099998794,[0.4101851851851852],[-0.06388888888888888],[1],[0],[0],[1.4780171000165865],['target'],03,001,2024-10-10_21h38.24.478,VisualSearch,2024.1.5,None,2024-10-10 21h38.35.899121 +0530,
151,0,151,0,277.4437320000143,,277.4037395999767,5,277.4437320000143,277.4437320000143,0.03179819998331368,278.8119036999997,[-0.36574074074074076],[-0.175],[1],[0],[0],[1.3769139000214636],['target'],03,001,2024-10-10_21h38.24.478,VisualSearch,2024.1.5,None,2024-10-10 21h38.35.899121 +0530,
152,0,152,0,278.86208300001454,,278.81807179999305,5,278.86208300001454,278.86208300001454,0.031520399963483214,280.49371229996905,[0.4842592592592593],[0.3527777777777778],[1],[0],[0],[1.644683399994392],['target'],03,001,2024-10-10_21h38.24.478,VisualSearch,2024.1.5,None,2024-10-10 21h38.35.899121 +0530,
153,0,153,0,280.5697740999749,,280.50011969998013,10,280.5697740999749,280.5697740999749,0.05743259994778782,281.87546640000073,[0.4083333333333333],[0.020370370370370372],[1],[0],[0],[1.3186183999641798],['target'],03,001,2024-10-10_21h38.24.478,VisualSearch,2024.1.5,None,2024-10-10 21h38.35.899121 +0530,
154,0,154,0,281.96080669999355,,281.8815397999715,10,281.96080669999355,281.96080669999355,0.059736100025475025,283.65612830000464,[-0.11203703703703703],[0.14444444444444443],[1],[0],[0],[1.7156712000141852],['target'],03,001,2024-10-10_21h38.24.478,VisualSearch,2024.1.5,None,2024-10-10 21h38.35.899121 +0530,
155,0,155,0,283.7100655999966,,283.6598485999857,10,283.7100655999966,283.7100655999966,0.036772900028154254,285.63821279996773,[0.062037037037037036],[-0.20925925925925926],[1],[0],[0],[1.9418131000129506],['target'],03,001,2024-10-10_21h38.24.478,VisualSearch,2024.1.5,None,2024-10-10 21h38.35.899121 +0530,
156,0,156,0,285.68070669996087,,285.6420906999847,5,285.68070669996087,285.68070669996087,0.02649379998911172,286.9212089999928,[0.18333333333333332],[-0.01574074074074074],[1],[0],[0],[1.252790600003209],['target'],03,001,2024-10-10_21h38.24.478,VisualSearch,2024.1.5,None,2024-10-10 21h38.35.899121 +0530,
157,0,157,0,286.97007430001395,,286.9275937000057,5,286.97007430001395,286.97007430001395,0.029530200001318008,288.8528972999775,[-0.3351851851851852],[0.3990740740740741],[1],[0],[0],[1.8962194999912754],['target'],03,001,2024-10-10_21h38.24.478,VisualSearch,2024.1.5,None,2024-10-10 21h38.35.899121 +0530,
158,0,158,0,288.8976697999751,,288.85946830001194,5,288.8976697999751,288.8976697999751,0.03047229995718226,290.7501502999803,[0.4537037037037037],[-0.18518518518518517],[1],[0],[0],[1.8609087000368163],['target'],03,001,2024-10-10_21h38.24.478,VisualSearch,2024.1.5,None,2024-10-10 21h38.35.899121 +0530,
159,0,159,0,290.79194590001134,,290.7562743999879,5,290.79194590001134,290.79194590001134,0.027557299996260554,293.1812899999786,[-0.2564814814814815],[0.4935185185185185],[1],[0],[0],[2.3982057999819517],['target'],03,001,2024-10-10_21h38.24.478,VisualSearch,2024.1.5,None,2024-10-10 21h38.35.899121 +0530,
160,0,160,0,293.24059210001724,,293.1851977999904,10,293.24059210001724,293.24059210001724,0.039337299996986985,294.679747999995,[-0.4324074074074074],[0.20462962962962963],[1],[0],[0],[1.4555885999579914],['target'],03,001,2024-10-10_21h38.24.478,VisualSearch,2024.1.5,None,2024-10-10 21h38.35.899121 +0530,
161,0,161,0,294.73503879999043,,294.6840482999687,10,294.73503879999043,294.73503879999043,0.0360655999975279,296.7109645999735,[0.07592592592592592],[0.4324074074074074],[1],[0],[0],[1.99121029995149],['target'],03,001,2024-10-10_21h38.24.478,VisualSearch,2024.1.5,None,2024-10-10 21h38.35.899121 +0530,
162,0,162,0,296.7444594000117,,296.7149461999652,5,296.7444594000117,296.7444594000117,0.019284799986053258,298.3765548999654,[-0.06481481481481481],[0.012037037037037037],[1],[0],[0],[1.6425164999673143],['target'],03,001,2024-10-10_21h38.24.478,VisualSearch,2024.1.5,None,2024-10-10 21h38.35.899121 +0530,
163,0,163,0,298.46149229997536,,298.3830735000083,10,298.46149229997536,298.46149229997536,0.058029400010127574,301.0236097999732,[0.4444444444444444],[0.46296296296296297],[1],[0],[0],[2.583581499988213],['target'],03,001,2024-10-10_21h38.24.478,VisualSearch,2024.1.5,None,2024-10-10 21h38.35.899121 +0530,
164,0,164,0,301.0560457999818,,301.0276939999894,5,301.0560457999818,301.0560457999818,0.01908579998416826,303.0559748999658,[-0.24814814814814815],[-0.35648148148148145],[1],[0],[0],[2.0092791999923065],['target'],03,001,2024-10-10_21h38.24.478,VisualSearch,2024.1.5,None,2024-10-10 21h38.35.899121 +0530,
165,0,165,0,303.10858369997004,,303.06228640000336,5,303.10858369997004,303.10858369997004,0.031666100025177,304.55410339997616,[-0.22962962962962963],[-0.022222222222222223],[1],[0],[0],[1.4608447999926284],['target'],03,001,2024-10-10_21h38.24.478,VisualSearch,2024.1.5,None,2024-10-10 21h38.35.899121 +0530,
166,0,166,0,304.6298657999723,,304.56050479999976,10,304.6298657999723,304.6298657999723,0.05692340002860874,306.76792389998445,[0.02962962962962963],[-0.2490740740740741],[1],[0],[0],[2.1516807000152767],['target'],03,001,2024-10-10_21h38.24.478,VisualSearch,2024.1.5,None,2024-10-10 21h38.35.899121 +0530,
167,0,167,0,306.8033562999917,,306.7723820999963,5,306.8033562999917,306.8033562999917,0.021117000025697052,308.26692239998374,[-0.4638888888888889],[-0.18703703703703703],[1],[0],[0],[1.4738848999841139],['target'],03,001,2024-10-10_21h38.24.478,VisualSearch,2024.1.5,None,2024-10-10 21h38.35.899121 +0530,
168,0,168,0,308.302596399968,,308.27244590001646,5,308.302596399968,308.302596399968,0.02280360000440851,309.68151839997154,[-0.14444444444444443],[-0.1287037037037037],[1],[0],[0],[1.3871097999508493],['target'],03,001,2024-10-10_21h38.24.478,VisualSearch,2024.1.5,None,2024-10-10 21h38.35.899121 +0530,
169,0,169,0,309.72016899997834,,309.68372580001596,10,309.72016899997834,309.72016899997834,0.02558430004864931,311.09703439997975,[-0.24351851851851852],[0.44166666666666665],[1],[0],[0],[1.3878836000221781],['target'],03,001,2024-10-10_21h38.24.478,VisualSearch,2024.1.5,None,2024-10-10 21h38.35.899121 +0530,
170,0,170,0,311.13095570000587,,311.099954299978,10,311.13095570000587,311.13095570000587,0.02318839996587485,312.5496814000071,[-0.3101851851851852],[0.4722222222222222],[1],[0],[0],[1.426505800045561],['target'],03,001,2024-10-10_21h38.24.478,VisualSearch,2024.1.5,None,2024-10-10 21h38.35.899121 +0530,
171,0,171,0,312.6139301999938,,312.5564424999757,10,312.6139301999938,312.6139301999938,0.03614319994812831,315.11080670001684,[0.17314814814814813],[-0.4425925925925926],[1],[0],[0],[2.519130699976813],['target'],03,001,2024-10-10_21h38.24.478,VisualSearch,2024.1.5,None,2024-10-10 21h38.35.899121 +0530,
172,0,172,0,315.17039440001827,,315.11479620001046,10,315.17039440001827,315.17039440001827,0.04129790002480149,317.15892229997553,[0.26666666666666666],[0.4212962962962963],[1],[0],[0],[2.0031104999943636],['target'],03,001,2024-10-10_21h38.24.478,VisualSearch,2024.1.5,None,2024-10-10 21h38.35.899121 +0530,
173,0,173,0,317.21124550001696,,317.16289400000824,10,317.21124550001696,317.21124550001696,0.03746859997045249,322.78724579996197,[0.412962962962963],[0.4888888888888889],[1],[0],[0],[5.587224199960474],['target'],03,001,2024-10-10_21h38.24.478,VisualSearch,2024.1.5,None,2024-10-10 21h38.35.899121 +0530,
174,0,174,0,322.81896800000686,,322.7912755999714,5,322.81896800000686,322.81896800000686,0.01916159997927025,324.83563049999066,[0.007407407407407408],[-0.3824074074074074],[1],[0],[0],[2.0252767999772914],['target'],03,001,2024-10-10_21h38.24.478,VisualSearch,2024.1.5,None,2024-10-10 21h38.35.899121 +0530,
175,0,175,0,324.88689480000176,,324.8421373000019,5,324.88689480000176,324.88689480000176,0.032179699977859855,326.2843507999787,[-0.08703703703703704],[0.017592592592592594],[1],[0],[0],[1.4104594999807887],['target'],03,001,2024-10-10_21h38.24.478,VisualSearch,2024.1.5,None,2024-10-10 21h38.35.899121 +0530,
176,0,176,0,326.3741968999966,,326.2905796999694,10,326.3741968999966,326.3741968999966,0.06297490000724792,328.6142683000071,[0.3638888888888889],[-0.11944444444444445],[1],[0],[0],[2.2618034000042826],['target'],03,001,2024-10-10_21h38.24.478,VisualSearch,2024.1.5,None,2024-10-10 21h38.35.899121 +0530,
177,0,177,0,328.65580229996704,,328.61852029996226,5,328.65580229996704,328.65580229996704,0.024656000023242086,330.2637802999816,[-0.04722222222222222],[0.29259259259259257],[1],[0],[0],[1.620674199948553],['target'],03,001,2024-10-10_21h38.24.478,VisualSearch,2024.1.5,None,2024-10-10 21h38.35.899121 +0530,
178,0,178,0,330.3382594999857,,330.2701436000061,10,330.3382594999857,330.3382594999857,0.055211199971381575,332.1775138999801,[0.010185185185185186],[-0.32314814814814813],[1],[0],[0],[1.853233999980148],['target'],03,001,2024-10-10_21h38.24.478,VisualSearch,2024.1.5,None,2024-10-10 21h38.35.899121 +0530,
179,0,179,0,332.23175089998404,,332.181536899996,10,332.23175089998404,332.23175089998404,0.035228800028562546,334.3755468999734,[-0.08333333333333333],[0.41944444444444445],[1],[0],[0],[2.1593790999613702],['target'],03,001,2024-10-10_21h38.24.478,VisualSearch,2024.1.5,None,2024-10-10 21h38.35.899121 +0530,
180,0,180,0,334.4104395000031,,334.377782399999,10,334.4104395000031,334.4104395000031,0.022959500027354807,336.27374370000325,[-0.23055555555555557],[0.487962962962963],[1],[0],[0],[1.8731482999864966],['target'],03,001,2024-10-10_21h38.24.478,VisualSearch,2024.1.5,None,2024-10-10 21h38.35.899121 +0530,
181,0,181,0,336.29270439996617,,336.27599130000453,5,336.29270439996617,336.29270439996617,0.010628099960740656,338.2719470000011,[0.2722222222222222],[-0.375],[1],[0],[0],[1.9854898999910802],['target'],03,001,2024-10-10_21h38.24.478,VisualSearch,2024.1.5,None,2024-10-10 21h38.35.899121 +0530,
182,0,182,0,338.30728780000936,,338.2745755999931,10,338.30728780000936,338.30728780000936,0.023530999955255538,340.08727550000185,[0.32222222222222224],[0.23703703703703705],[1],[0],[0],[1.789097499975469],['target'],03,001,2024-10-10_21h38.24.478,VisualSearch,2024.1.5,None,2024-10-10 21h38.35.899121 +0530,
183,0,183,0,340.15748190000886,,340.0915774999885,10,340.15748190000886,340.15748190000886,0.050238800002261996,341.5356541000074,[0.06481481481481481],[0.11666666666666667],[1],[0],[0],[1.394303500012029],['target'],03,001,2024-10-10_21h38.24.478,VisualSearch,2024.1.5,None,2024-10-10 21h38.35.899121 +0530,
184,0,184,0,341.5722459999961,,341.5399317999836,5,341.5722459999961,341.5722459999961,0.02242990001104772,342.9693024000153,[-0.010185185185185186],[0.27685185185185185],[1],[0],[0],[1.4070103999692947],['target'],03,001,2024-10-10_21h38.24.478,VisualSearch,2024.1.5,None,2024-10-10 21h38.35.899121 +0530,
185,0,185,0,343.0384206000017,,342.97575719997985,10,343.0384206000017,343.0384206000017,0.04983110004104674,345.0320005000103,[0.40555555555555556],[-0.009259259259259259],[1],[0],[0],[2.0073490999639034],['target'],03,001,2024-10-10_21h38.24.478,VisualSearch,2024.1.5,None,2024-10-10 21h38.35.899121 +0530,
186,0,186,0,345.0668294999632,,345.0363048000145,5,345.0668294999632,345.0668294999632,0.021216300025116652,347.081515799975,[-0.26296296296296295],[-0.4787037037037037],[1],[0],[0],[2.024256900011096],['target'],03,001,2024-10-10_21h38.24.478,VisualSearch,2024.1.5,None,2024-10-10 21h38.35.899121 +0530,
187,0,187,0,347.12926449999213,,347.0877581000095,5,347.12926449999213,347.12926449999213,0.029767400003038347,348.629771500011,[-0.13703703703703704],[-0.021296296296296296],[1],[0],[0],[1.5128850000328384],['target'],03,001,2024-10-10_21h38.24.478,VisualSearch,2024.1.5,None,2024-10-10 21h38.35.899121 +0530,
188,0,188,0,348.69933480001055,,348.6361376999994,10,348.69933480001055,348.69933480001055,0.05121939996024594,350.66055219998816,[-0.41759259259259257],[0.28888888888888886],[1],[0],[0],[1.974035500024911],['target'],03,001,2024-10-10_21h38.24.478,VisualSearch,2024.1.5,None,2024-10-10 21h38.35.899121 +0530,
189,0,189,0,350.7054896999616,,350.66465409996454,10,350.7054896999616,350.7054896999616,0.031477500044275075,352.67525249999017,[0.1574074074074074],[-0.08148148148148149],[1],[0],[0],[1.9795653999899514],['target'],03,001,2024-10-10_21h38.24.478,VisualSearch,2024.1.5,None,2024-10-10 21h38.35.899121 +0530,
190,0,190,0,352.73967199999606,,352.67946979997214,10,352.73967199999606,352.73967199999606,0.04182560002664104,355.04260429996066,[-0.375],[-0.42962962962962964],[1],[0],[0],[2.321614100015722],['target'],03,001,2024-10-10_21h38.24.478,VisualSearch,2024.1.5,None,2024-10-10 21h38.35.899121 +0530,
191,0,191,0,355.07242669997504,,355.04652919998625,5,355.07242669997504,355.07242669997504,0.019446499994955957,356.62317460001213,[-0.19722222222222222],[0.10185185185185185],[1],[0],[0],[1.5572548999916762],['target'],03,001,2024-10-10_21h38.24.478,VisualSearch,2024.1.5,None,2024-10-10 21h38.35.899121 +0530,
192,0,192,0,356.6679240000085,,356.6295452999766,5,356.6679240000085,356.6679240000085,0.030757499975152314,357.9882027999847,[-0.22592592592592592],[0.4675925925925926],[1],[0],[0],[1.3284826999879442],['target'],03,001,2024-10-10_21h38.24.478,VisualSearch,2024.1.5,None,2024-10-10 21h38.35.899121 +0530,
193,0,193,0,358.03745930001605,,357.99460470001213,5,358.03745930001605,358.03745930001605,0.030373900022823364,359.420006499975,[-0.01574074074074074],[0.2759259259259259],[1],[0],[0],[1.3955454000388272],['target'],03,001,2024-10-10_21h38.24.478,VisualSearch,2024.1.5,None,2024-10-10 21h38.35.899121 +0530,
194,0,194,0,359.5063364999951,,359.426450799976,10,359.5063364999951,359.5063364999951,0.05680339998798445,360.91837410000153,[-0.3388888888888889],[0.02962962962962963],[1],[0],[0],[1.4357649000012316],['target'],03,001,2024-10-10_21h38.24.478,VisualSearch,2024.1.5,None,2024-10-10 21h38.35.899121 +0530,
195,0,195,0,360.96375130000524,,360.92482179997023,5,360.96375130000524,360.96375130000524,0.028436099993996322,362.2669492000132,[-0.46111111111111114],[-0.2361111111111111],[1],[0],[0],[1.3143701999797486],['target'],03,001,2024-10-10_21h38.24.478,VisualSearch,2024.1.5,None,2024-10-10 21h38.35.899121 +0530,
196,0,196,0,362.33266010001535,,362.2732259000186,10,362.33266010001535,362.33266010001535,0.04669230000581592,363.85592499998165,[-0.0824074074074074],[0.262037037037037],[1],[0],[0],[1.5366020000074059],['target'],03,001,2024-10-10_21h38.24.478,VisualSearch,2024.1.5,None,2024-10-10 21h38.35.899121 +0530,
197,0,197,0,363.91641860001255,,363.86195439996663,10,363.91641860001255,363.91641860001255,0.04261220002081245,366.8555101999664,[0.1537037037037037],[0.4962962962962963],[1],[0],[0],[2.9516001000301912],['target'],03,001,2024-10-10_21h38.24.478,VisualSearch,2024.1.5,None,2024-10-10 21h38.35.899121 +0530,
198,0,198,0,366.9172305999673,,366.8627683999948,10,366.9172305999673,366.9172305999673,0.04254469997249544,369.2938165999949,[0.2101851851851852],[-0.3435185185185185],[1],[0],[0],[2.3895461999927647],['target'],03,001,2024-10-10_21h38.24.478,VisualSearch,2024.1.5,None,2024-10-10 21h38.35.899121 +0530,
199,0,199,0,369.31684280000627,,369.2966320000123,5,369.31684280000627,369.31684280000627,0.014963100024033338,370.8925214000046,[-0.37222222222222223],[-0.11388888888888889],[1],[0],[0],[1.580666600028053],['target'],03,001,2024-10-10_21h38.24.478,VisualSearch,2024.1.5,None,2024-10-10 21h38.35.899121 +0530,
