trials.thisRepN,trials.thisTrialN,trials.thisN,trials.thisIndex,thisRow.t,notes,trial.started,num_distr,fixation.started,target.started,mouse.started,trial.stopped,mouse.x,mouse.y,mouse.leftButton,mouse.midButton,mouse.rightButton,mouse.time,mouse.clicked_name,participant,session,date,expName,psychopyVersion,frameRate,expStart,
0,0,0,0,0.05419679987244308,,0.0193081998731941,5,0.05419679987244308,0.05419679987244308,0.04390750010497868,1.2700912998989224,[-0.1423611111111111],[0.1412037037037037],[1],[0],[0],[1.2240180000662804],['target'],351306,001,2024-10-04_11h12.36.665,VisualSearch,2024.1.5,None,2024-10-04 11h12.41.560999 +0530,
1,0,1,0,1.299534299876541,,1.2757789997849613,5,1.299534299876541,1.299534299876541,0.017486500088125467,2.5282629998400807,[-0.38773148148148145],[0.2673611111111111],[1],[0],[0],[1.2358651000540704],['target'],351306,001,2024-10-04_11h12.36.665,VisualSearch,2024.1.5,None,2024-10-04 11h12.41.560999 +0530,
2,0,2,0,2.587729699909687,,2.5327182998880744,10,2.587729699909687,2.587729699909687,0.04330819984897971,3.8782537998631597,[0.15162037037037038],[0.30324074074074076],[1],[0],[0],[1.3026743000373244],['target'],351306,001,2024-10-04_11h12.36.665,VisualSearch,2024.1.5,None,2024-10-04 11h12.41.560999 +0530,
3,0,3,0,3.914774199947715,,3.8831230998039246,5,3.914774199947715,3.914774199947715,0.021486899815499783,5.258256899891421,[0.39699074074074076],[0.4085648148148148],[1],[0],[0],[1.354354599956423],[],351306,001,2024-10-04_11h12.36.665,VisualSearch,2024.1.5,None,2024-10-04 11h12.41.560999 +0530,
4,0,4,0,5.295016399817541,,5.260594999883324,10,5.295016399817541,5.295016399817541,0.025499599985778332,6.990440799854696,[-0.33449074074074076],[-0.2569444444444444],[1],[0],[0],[1.7044518999755383],['target'],351306,001,2024-10-04_11h12.36.665,VisualSearch,2024.1.5,None,2024-10-04 11h12.41.560999 +0530,
5,0,5,0,7.052472699899226,,6.994924099883065,10,7.052472699899226,7.052472699899226,0.04939469997771084,8.455274099949747,[-0.16203703703703703],[-0.03935185185185185],[1],[0],[0],[1.411591999931261],['target'],351306,001,2024-10-04_11h12.36.665,VisualSearch,2024.1.5,None,2024-10-04 11h12.41.560999 +0530,
6,0,6,0,8.490300599951297,,8.45776109979488,10,8.490300599951297,8.490300599951297,0.022448200033977628,10.670585699845105,[-0.11458333333333333],[-0.3125],[1],[0],[0],[2.1901287001091987],['target'],351306,001,2024-10-04_11h12.36.665,VisualSearch,2024.1.5,None,2024-10-04 11h12.41.560999 +0530,
7,0,7,0,10.732366799842566,,10.674745499854907,10,10.732366799842566,10.732366799842566,0.04246239992789924,12.418759499909356,[-0.19675925925925927],[-0.36342592592592593],[1],[0],[0],[1.7019136000890285],['target'],351306,001,2024-10-04_11h12.36.665,VisualSearch,2024.1.5,None,2024-10-04 11h12.41.560999 +0530,
8,0,8,0,12.454040799988434,,12.422840399900451,5,12.454040799988434,12.454040799988434,0.022517099976539612,13.819172499934211,[0.16550925925925927],[0.3958333333333333],[1],[0],[0],[1.3738386000040919],['target'],351306,001,2024-10-04_11h12.36.665,VisualSearch,2024.1.5,None,2024-10-04 11h12.41.560999 +0530,
9,0,9,0,13.870586599921808,,13.8258098999504,5,13.870586599921808,13.870586599921808,0.032450499944388866,14.68420199980028,[0.17476851851851852],[0.3958333333333333],[1],[0],[0],[0.8267447000835091],['target'],351306,001,2024-10-04_11h12.36.665,VisualSearch,2024.1.5,None,2024-10-04 11h12.41.560999 +0530,
10,0,10,0,14.776910499902442,,14.6916108999867,10,14.776910499902442,14.776910499902442,0.06500840000808239,15.782312799943611,[0.19791666666666666],[0.4386574074074074],[1],[0],[0],[1.0267372999805957],['target'],351306,001,2024-10-04_11h12.36.665,VisualSearch,2024.1.5,None,2024-10-04 11h12.41.560999 +0530,
11,0,11,0,15.837512999773026,,15.786362999817356,10,15.837512999773026,15.837512999773026,0.039467599941417575,17.33143539982848,[0.3576388888888889],[0.4097222222222222],[1],[0],[0],[1.5060036999639124],['target'],351306,001,2024-10-04_11h12.36.665,VisualSearch,2024.1.5,None,2024-10-04 11h12.41.560999 +0530,
12,0,12,0,17.401844899868593,,17.336174899945036,10,17.401844899868593,17.401844899868593,0.04809399996884167,18.898772899992764,[0.1111111111111111],[0.4375],[1],[0],[0],[1.5148083998356014],['target'],351306,001,2024-10-04_11h12.36.665,VisualSearch,2024.1.5,None,2024-10-04 11h12.41.560999 +0530,
13,0,13,0,18.93005429999903,,18.902968999929726,5,18.93005429999903,18.93005429999903,0.02089069993235171,20.89870089991018,[0.16435185185185186],[-0.06597222222222222],[1],[0],[0],[1.9748557999264449],['target'],351306,001,2024-10-04_11h12.36.665,VisualSearch,2024.1.5,None,2024-10-04 11h12.41.560999 +0530,
14,0,14,0,20.947204199852422,,20.905656999908388,5,20.947204199852422,20.947204199852422,0.03119049989618361,22.57728059985675,[0.02199074074074074],[0.44907407407407407],[1],[0],[0],[1.641356100095436],['target'],351306,001,2024-10-04_11h12.36.665,VisualSearch,2024.1.5,None,2024-10-04 11h12.41.560999 +0530,
15,0,15,0,22.654123099986464,,22.58375519979745,10,22.654123099986464,22.654123099986464,0.057272400008514524,24.091335099888965,[-0.2777777777777778],[0.2361111111111111],[1],[0],[0],[1.4512271999847144],['target'],351306,001,2024-10-04_11h12.36.665,VisualSearch,2024.1.5,None,2024-10-04 11h12.41.560999 +0530,
16,0,16,0,24.122039599809796,,24.095597099978477,5,24.122039599809796,24.122039599809796,0.01898659998551011,25.64246999984607,[-0.42592592592592593],[-0.20601851851851852],[1],[0],[0],[1.528439300134778],['target'],351306,001,2024-10-04_11h12.36.665,VisualSearch,2024.1.5,None,2024-10-04 11h12.41.560999 +0530,
17,0,17,0,25.664974099956453,,25.645456099882722,5,25.664974099956453,25.664974099956453,0.013593999901786447,27.02138749998994,[-0.15856481481481483],[0.42476851851851855],[1],[0],[0],[1.3626061000395566],['target'],351306,001,2024-10-04_11h12.36.665,VisualSearch,2024.1.5,None,2024-10-04 11h12.41.560999 +0530,
18,0,18,0,27.070982499979436,,27.0247139998246,10,27.070982499979436,27.070982499979436,0.03414839995093644,28.874119199812412,[-0.1875],[-0.17824074074074073],[1],[0],[0],[1.815487900050357],['target'],351306,001,2024-10-04_11h12.36.665,VisualSearch,2024.1.5,None,2024-10-04 11h12.41.560999 +0530,
19,0,19,0,28.922429899917915,,28.87865739990957,5,28.922429899917915,28.922429899917915,0.029772999929264188,30.237038399791345,[-0.13078703703703703],[0.1099537037037037],[1],[0],[0],[1.3288437000010163],['target'],351306,001,2024-10-04_11h12.36.665,VisualSearch,2024.1.5,None,2024-10-04 11h12.41.560999 +0530,
20,0,20,0,30.28915279987268,,30.243609099881724,5,30.28915279987268,30.28915279987268,0.0324840999674052,31.685268599772826,[0.34837962962962965],[0.3298611111111111],[1],[0],[0],[1.409849900053814],['target'],351306,001,2024-10-04_11h12.36.665,VisualSearch,2024.1.5,None,2024-10-04 11h12.41.560999 +0530,
21,0,21,0,31.7376017998904,,31.691654899856076,5,31.7376017998904,31.7376017998904,0.03279619989916682,33.184154299786314,[0.041666666666666664],[0.43287037037037035],[1],[0],[0],[1.4607549000065774],['target'],351306,001,2024-10-04_11h12.36.665,VisualSearch,2024.1.5,None,2024-10-04 11h12.41.560999 +0530,
22,0,22,0,33.24818569980562,,33.18744419980794,10,33.24818569980562,33.24818569980562,0.04673280008137226,35.53114039986394,[-0.3402777777777778],[-0.4236111111111111],[1],[0],[0],[2.2973485998809338],['target'],351306,001,2024-10-04_11h12.36.665,VisualSearch,2024.1.5,None,2024-10-04 11h12.41.560999 +0530,
23,0,23,0,35.552403799956664,,35.5335414998699,5,35.552403799956664,35.552403799956664,0.01125010009855032,37.1951527998317,[0.11574074074074074],[-0.36226851851851855],[1],[0],[0],[1.6505456001032144],['target'],351306,001,2024-10-04_11h12.36.665,VisualSearch,2024.1.5,None,2024-10-04 11h12.41.560999 +0530,
24,0,24,0,37.23783629992977,,37.19750579982065,10,37.23783629992977,37.23783629992977,0.029505900107324123,38.71015059994534,[0.2881944444444444],[-0.10069444444444445],[1],[0],[0],[1.4833113001659513],['target'],351306,001,2024-10-04_11h12.36.665,VisualSearch,2024.1.5,None,2024-10-04 11h12.41.560999 +0530,
25,0,25,0,38.73180899978615,,38.71260259998962,5,38.73180899978615,38.73180899978615,0.010921600041911006,40.5275995999109,[0.1909722222222222],[0.3680555555555556],[1],[0],[0],[1.8037565001286566],['target'],351306,001,2024-10-04_11h12.36.665,VisualSearch,2024.1.5,None,2024-10-04 11h12.41.560999 +0530,
26,0,26,0,40.57115919981152,,40.534409599844366,5,40.57115919981152,40.57115919981152,0.02807830017991364,41.958580899983644,[-0.12152777777777778],[0.21296296296296297],[1],[0],[0],[1.3970872000791132],['target'],351306,001,2024-10-04_11h12.36.665,VisualSearch,2024.1.5,None,2024-10-04 11h12.41.560999 +0530,
27,0,27,0,42.02684349985793,,41.96306849992834,10,42.02684349985793,42.02684349985793,0.0451384000480175,43.59593339986168,[-0.4236111111111111],[0.2777777777777778],[1],[0],[0],[1.5881063998676836],['target'],351306,001,2024-10-04_11h12.36.665,VisualSearch,2024.1.5,None,2024-10-04 11h12.41.560999 +0530,
28,0,28,0,43.65104869985953,,43.60129259992391,10,43.65104869985953,43.65104869985953,0.04073270014487207,46.20378229999915,[0.48842592592592593],[-0.3148148148148148],[1],[0],[0],[2.562273999908939],['target'],351306,001,2024-10-04_11h12.36.665,VisualSearch,2024.1.5,None,2024-10-04 11h12.41.560999 +0530,
29,0,29,0,46.262339499779046,,46.20795899978839,10,46.262339499779046,46.262339499779046,0.03852470009587705,48.48459079978056,[0.41898148148148145],[-0.12384259259259259],[1],[0],[0],[2.238686400000006],['target'],351306,001,2024-10-04_11h12.36.665,VisualSearch,2024.1.5,None,2024-10-04 11h12.41.560999 +0530,
30,0,30,0,48.52547029987909,,48.48764759977348,10,48.52547029987909,48.52547029987909,0.02626170008443296,50.383955099852756,[0.3101851851851852],[-0.4699074074074074],[1],[0],[0],[1.8699833999853581],['target'],351306,001,2024-10-04_11h12.36.665,VisualSearch,2024.1.5,None,2024-10-04 11h12.41.560999 +0530,
31,0,31,0,50.446446999907494,,50.3891514998395,10,50.446446999907494,50.446446999907494,0.04074890003539622,52.549947099993005,[-0.47685185185185186],[-0.06018518518518518],[1],[0],[0],[2.120682700071484],['target'],351306,001,2024-10-04_11h12.36.665,VisualSearch,2024.1.5,None,2024-10-04 11h12.41.560999 +0530,
32,0,32,0,52.58281549997628,,52.55383149976842,5,52.58281549997628,52.58281549997628,0.020066700177267194,53.96362979989499,[-0.023148148148148147],[-0.17708333333333334],[1],[0],[0],[1.3901160000823438],['target'],351306,001,2024-10-04_11h12.36.665,VisualSearch,2024.1.5,None,2024-10-04 11h12.41.560999 +0530,
33,0,33,0,53.99095129990019,,53.9659481998533,5,53.99095129990019,53.99095129990019,0.013585899956524372,56.229819499887526,[-0.06597222222222222],[0.125],[1],[0],[0],[2.2498538999352604],['target'],351306,001,2024-10-04_11h12.36.665,VisualSearch,2024.1.5,None,2024-10-04 11h12.41.560999 +0530,
34,0,34,0,56.32641389989294,,56.23682749993168,10,56.32641389989294,56.32641389989294,0.06970280013047159,57.89292119978927,[-0.2037037037037037],[0.3194444444444444],[1],[0],[0],[1.5875573998782784],['target'],351306,001,2024-10-04_11h12.36.665,VisualSearch,2024.1.5,None,2024-10-04 11h12.41.560999 +0530,
35,0,35,0,57.952249999856576,,57.89730599988252,10,57.952249999856576,57.952249999856576,0.03879139991477132,60.02472709980793,[-0.02662037037037037],[-0.28935185185185186],[1],[0],[0],[2.0888093998655677],['target'],351306,001,2024-10-04_11h12.36.665,VisualSearch,2024.1.5,None,2024-10-04 11h12.41.560999 +0530,
36,0,36,0,60.058215899858624,,60.0289979998488,5,60.058215899858624,60.058215899858624,0.021290500182658434,61.456787599949166,[-0.052083333333333336],[0.1840277777777778],[1],[0],[0],[1.4069755000527948],['target'],351306,001,2024-10-04_11h12.36.665,VisualSearch,2024.1.5,None,2024-10-04 11h12.41.560999 +0530,
37,0,37,0,61.5314672999084,,61.46150219999254,10,61.5314672999084,61.5314672999084,0.051841999869793653,63.02115589985624,[0.17939814814814814],[0.44328703703703703],[1],[0],[0],[1.5085879999678582],['target'],351306,001,2024-10-04_11h12.36.665,VisualSearch,2024.1.5,None,2024-10-04 11h12.41.560999 +0530,
38,0,38,0,63.04619609983638,,63.02438379987143,5,63.04619609983638,63.04619609983638,0.015710200183093548,64.37109559983946,[-0.2199074074074074],[-0.034722222222222224],[1],[0],[0],[1.3309695001225919],['target'],351306,001,2024-10-04_11h12.36.665,VisualSearch,2024.1.5,None,2024-10-04 11h12.41.560999 +0530,
39,0,39,0,64.41653569997288,,64.37769679981284,5,64.41653569997288,64.41653569997288,0.03000709996558726,65.73606069991365,[-0.10300925925925926],[0.25810185185185186],[1],[0],[0],[1.3290691000875086],['target'],351306,001,2024-10-04_11h12.36.665,VisualSearch,2024.1.5,None,2024-10-04 11h12.41.560999 +0530,
40,0,40,0,65.77532969997264,,65.73825789988041,10,65.77532969997264,65.77532969997264,0.028165399795398116,67.6618808999192,[0.21296296296296297],[-0.19212962962962962],[1],[0],[0],[1.895119900116697],['target'],351306,001,2024-10-04_11h12.36.665,VisualSearch,2024.1.5,None,2024-10-04 11h12.41.560999 +0530,
41,0,41,0,67.71418889984488,,67.66913539986126,5,67.71418889984488,67.71418889984488,0.03529169992543757,69.51555029978044,[-0.02546296296296296],[-0.32175925925925924],[1],[0],[0],[1.8121579000726342],['target'],351306,001,2024-10-04_11h12.36.665,VisualSearch,2024.1.5,None,2024-10-04 11h12.41.560999 +0530,
42,0,42,0,69.5811998997815,,69.52009589993395,10,69.5811998997815,69.5811998997815,0.04579469980672002,71.44674849999137,[0.3263888888888889],[-0.13194444444444445],[1],[0],[0],[1.881311200093478],['target'],351306,001,2024-10-04_11h12.36.665,VisualSearch,2024.1.5,None,2024-10-04 11h12.41.560999 +0530,
43,0,43,0,71.4689902998507,,71.44900219980627,5,71.4689902998507,71.4689902998507,0.010624400107190013,73.37956039980054,[-0.3055555555555556],[0.36921296296296297],[1],[0],[0],[1.9198028000537306],['target'],351306,001,2024-10-04_11h12.36.665,VisualSearch,2024.1.5,None,2024-10-04 11h12.41.560999 +0530,
44,0,44,0,73.46636259998195,,73.38535249978304,10,73.46636259998195,73.46636259998195,0.05792520008981228,74.92692389991134,[0.19328703703703703],[-0.034722222222222224],[1],[0],[0],[1.4845458001364022],['target'],351306,001,2024-10-04_11h12.36.665,VisualSearch,2024.1.5,None,2024-10-04 11h12.41.560999 +0530,
45,0,45,0,74.94856069982052,,74.92966019990854,5,74.94856069982052,74.94856069982052,0.012015199987217784,76.39242359995842,[0.27546296296296297],[0.3101851851851852],[1],[0],[0],[1.450922799995169],['target'],351306,001,2024-10-04_11h12.36.665,VisualSearch,2024.1.5,None,2024-10-04 11h12.41.560999 +0530,
46,0,46,0,76.429549299879,,76.39510459988378,10,76.429549299879,76.429549299879,0.024564400082454085,79.20595539989881,[-0.14351851851851852],[0.5],[1],[0],[0],[2.7864558999426663],['target'],351306,001,2024-10-04_11h12.36.665,VisualSearch,2024.1.5,None,2024-10-04 11h12.41.560999 +0530,
47,0,47,0,79.23126289993525,,79.2083835999947,5,79.23126289993525,79.23126289993525,0.010584899922832847,80.63970869989134,[0.16898148148148148],[0.05439814814814815],[1],[0],[0],[1.4207060998305678],['target'],351306,001,2024-10-04_11h12.36.665,VisualSearch,2024.1.5,None,2024-10-04 11h12.41.560999 +0530,
48,0,48,0,80.67705869977362,,80.64548339997418,5,80.67705869977362,80.67705869977362,0.022067700047045946,82.32094519981183,[0.2604166666666667],[-0.1111111111111111],[1],[0],[0],[1.6537766000255942],['target'],351306,001,2024-10-04_11h12.36.665,VisualSearch,2024.1.5,None,2024-10-04 11h12.41.560999 +0530,
49,0,49,0,82.38600189983845,,82.32502269977704,10,82.38600189983845,82.38600189983845,0.04076940007507801,84.8348502998706,[-0.2673611111111111],[0.4525462962962963],[1],[0],[0],[2.4695224999450147],['target'],351306,001,2024-10-04_11h12.36.665,VisualSearch,2024.1.5,None,2024-10-04 11h12.41.560999 +0530,
50,0,50,0,84.87321339990012,,84.83987409994006,5,84.87321339990012,84.87321339990012,0.02171460003592074,86.55057549988851,[0.0],[-0.16087962962962962],[1],[0],[0],[1.6892277000006288],['target'],351306,001,2024-10-04_11h12.36.665,VisualSearch,2024.1.5,None,2024-10-04 11h12.41.560999 +0530,
51,0,51,0,86.60224259993993,,86.55709039978683,5,86.60224259993993,86.60224259993993,0.030876500066369772,88.09917949978262,[-0.052083333333333336],[-0.42824074074074076],[1],[0],[0],[1.5119853001087904],['target'],351306,001,2024-10-04_11h12.36.665,VisualSearch,2024.1.5,None,2024-10-04 11h12.41.560999 +0530,
52,0,52,0,88.17094629979692,,88.1059558999259,10,88.17094629979692,88.17094629979692,0.051311499904841185,90.31352769979276,[0.1736111111111111],[-0.39351851851851855],[1],[0],[0],[2.1570798999164253],['target'],351306,001,2024-10-04_11h12.36.665,VisualSearch,2024.1.5,None,2024-10-04 11h12.41.560999 +0530,
53,0,53,0,90.38064939994365,,90.31804929999635,10,90.38064939994365,90.38064939994365,0.04512469982728362,91.8605601999443,[0.09143518518518519],[-0.018518518518518517],[1],[0],[0],[1.4980697000864893],['target'],351306,001,2024-10-04_11h12.36.665,VisualSearch,2024.1.5,None,2024-10-04 11h12.41.560999 +0530,
54,0,54,0,91.9001372999046,,91.86292169988155,10,91.9001372999046,91.9001372999046,0.026205800008028746,93.37897189985961,[-0.2465277777777778],[0.07175925925925926],[1],[0],[0],[1.4896636998746544],['target'],351306,001,2024-10-04_11h12.36.665,VisualSearch,2024.1.5,None,2024-10-04 11h12.41.560999 +0530,
55,0,55,0,93.45634439983405,,93.38540029991418,10,93.45634439983405,93.45634439983405,0.05383009999059141,94.95989369996823,[0.4930555555555556],[-0.03125],[1],[0],[0],[1.5216454998590052],['target'],351306,001,2024-10-04_11h12.36.665,VisualSearch,2024.1.5,None,2024-10-04 11h12.41.560999 +0530,
56,0,56,0,95.00972799980082,,94.96372949983925,10,95.00972799980082,95.00972799980082,0.03616399993188679,96.84014719980769,[-0.2534722222222222],[0.23726851851851852],[1],[0],[0],[1.8406803999096155],['target'],351306,001,2024-10-04_11h12.36.665,VisualSearch,2024.1.5,None,2024-10-04 11h12.41.560999 +0530,
57,0,57,0,96.8971036998555,,96.84427859983407,10,96.8971036998555,96.8971036998555,0.040401200065389276,99.254225499928,[-0.30787037037037035],[-0.22453703703703703],[1],[0],[0],[2.3697779001668096],['target'],351306,001,2024-10-04_11h12.36.665,VisualSearch,2024.1.5,None,2024-10-04 11h12.41.560999 +0530,
58,0,58,0,99.32346679992042,,99.26077649998479,10,99.32346679992042,99.32346679992042,0.04995190002955496,100.41993219987489,[0.24074074074074073],[-0.11458333333333333],[1],[0],[0],[1.1101955000776798],['target'],351306,001,2024-10-04_11h12.36.665,VisualSearch,2024.1.5,None,2024-10-04 11h12.41.560999 +0530,
59,0,59,0,100.4618486999534,,100.42218719981611,10,100.4618486999534,100.4618486999534,0.027377599850296974,102.08546119998209,[0.08796296296296297],[-0.44212962962962965],[1],[0],[0],[1.6358604000415653],['target'],351306,001,2024-10-04_11h12.36.665,VisualSearch,2024.1.5,None,2024-10-04 11h12.41.560999 +0530,
60,0,60,0,102.13908939994872,,102.09094659984112,10,102.13908939994872,102.13908939994872,0.035280399955809116,104.18322839983739,[0.34837962962962965],[-0.4525462962962963],[1],[0],[0],[2.0574767999351025],['target'],351306,001,2024-10-04_11h12.36.665,VisualSearch,2024.1.5,None,2024-10-04 11h12.41.560999 +0530,
61,0,61,0,104.2512948999647,,104.18765049986541,10,104.2512948999647,104.2512948999647,0.04104160005226731,106.39922159980051,[0.061342592592592594],[0.20601851851851852],[1],[0],[0],[2.1710173999890685],['target'],351306,001,2024-10-04_11h12.36.665,VisualSearch,2024.1.5,None,2024-10-04 11h12.41.560999 +0530,
62,0,62,0,106.44337239977904,,106.4042248998303,5,106.44337239977904,106.44337239977904,0.02817249996587634,108.23193909996189,[-0.3819444444444444],[0.42476851851851855],[1],[0],[0],[1.8000765000469983],['target'],351306,001,2024-10-04_11h12.36.665,VisualSearch,2024.1.5,None,2024-10-04 11h12.41.560999 +0530,
63,0,63,0,108.27640499989502,,108.2384392998647,5,108.27640499989502,108.27640499989502,0.029760199831798673,110.82763189985417,[0.45717592592592593],[-0.4537037037037037],[1],[0],[0],[2.5603698000777513],['target'],351306,001,2024-10-04_11h12.36.665,VisualSearch,2024.1.5,None,2024-10-04 11h12.41.560999 +0530,
64,0,64,0,110.90214959997684,,110.83443539985456,10,110.90214959997684,110.90214959997684,0.05297480011358857,112.22621149988845,[0.16319444444444445],[-0.03125],[1],[0],[0],[1.3397553998511285],['target'],351306,001,2024-10-04_11h12.36.665,VisualSearch,2024.1.5,None,2024-10-04 11h12.41.560999 +0530,
65,0,65,0,112.2494568999391,,112.22913179988973,5,112.2494568999391,112.2494568999391,0.013035800075158477,113.94174639997073,[-0.4756944444444444],[0.0625],[1],[0],[0],[1.6996090000029653],['target'],351306,001,2024-10-04_11h12.36.665,VisualSearch,2024.1.5,None,2024-10-04 11h12.41.560999 +0530,
66,0,66,0,113.97566429991275,,113.94586409977637,5,113.97566429991275,113.97566429991275,0.02110590017400682,115.92301089991815,[0.40625],[0.4756944444444444],[1],[0],[0],[1.9563174999784678],['target'],351306,001,2024-10-04_11h12.36.665,VisualSearch,2024.1.5,None,2024-10-04 11h12.41.560999 +0530,
67,0,67,0,115.99908799980767,,115.9297624998726,10,115.99908799980767,115.99908799980767,0.055191799998283386,117.47160029993393,[-0.22916666666666666],[0.23958333333333334],[1],[0],[0],[1.4874571000691503],['target'],351306,001,2024-10-04_11h12.36.665,VisualSearch,2024.1.5,None,2024-10-04 11h12.41.560999 +0530,
68,0,68,0,117.49261639988981,,117.47381899994798,5,117.49261639988981,117.49261639988981,0.011512599885463715,119.13699909998104,[0.41550925925925924],[-0.19675925925925927],[1],[0],[0],[1.6513678999617696],['target'],351306,001,2024-10-04_11h12.36.665,VisualSearch,2024.1.5,None,2024-10-04 11h12.41.560999 +0530,
69,0,69,0,119.18546539987437,,119.14267759979703,5,119.18546539987437,119.18546539987437,0.029927900061011314,120.48518829979002,[0.08101851851851852],[0.33796296296296297],[1],[0],[0],[1.313188400119543],['target'],351306,001,2024-10-04_11h12.36.665,VisualSearch,2024.1.5,None,2024-10-04 11h12.41.560999 +0530,
70,0,70,0,120.55473789991811,,120.49120939988643,10,120.55473789991811,120.55473789991811,0.051640900084748864,122.98797859996557,[-0.4074074074074074],[-0.30092592592592593],[1],[0],[0],[2.445805300027132],['target'],351306,001,2024-10-04_11h12.36.665,VisualSearch,2024.1.5,None,2024-10-04 11h12.41.560999 +0530,
71,0,71,0,123.02547559980303,,122.9923558998853,5,123.02547559980303,123.02547559980303,0.02083780011162162,124.16444049985148,[0.2847222222222222],[-0.0625],[1],[0],[0],[1.1516833000350744],['target'],351306,001,2024-10-04_11h12.36.665,VisualSearch,2024.1.5,None,2024-10-04 11h12.41.560999 +0530,
72,0,72,0,124.23585159983486,,124.16886389977299,10,124.23585159983486,124.23585159983486,0.04605890018865466,125.2134201999288,[0.3298611111111111],[-0.08796296296296297],[1],[0],[0],[0.9991094002034515],['target'],351306,001,2024-10-04_11h12.36.665,VisualSearch,2024.1.5,None,2024-10-04 11h12.41.560999 +0530,
73,0,73,0,125.23463139985688,,125.21649669995531,5,125.23463139985688,125.23463139985688,0.012000999879091978,126.86259229993448,[-0.42476851851851855],[-0.13078703703703703],[1],[0],[0],[1.6339432999957353],['target'],351306,001,2024-10-04_11h12.36.665,VisualSearch,2024.1.5,None,2024-10-04 11h12.41.560999 +0530,
74,0,74,0,126.89253589999862,,126.86620439984836,5,126.89253589999862,126.89253589999862,0.01809210004284978,128.11161699984223,[-0.44328703703703703],[0.024305555555555556],[1],[0],[0],[1.2276639000046998],['target'],351306,001,2024-10-04_11h12.36.665,VisualSearch,2024.1.5,None,2024-10-04 11h12.41.560999 +0530,
75,0,75,0,128.1341445997823,,128.11537729995325,5,128.1341445997823,128.1341445997823,0.012484800070524216,129.69187260000035,[0.1701388888888889],[0.11458333333333333],[1],[0],[0],[1.5641799999866635],['target'],351306,001,2024-10-04_11h12.36.665,VisualSearch,2024.1.5,None,2024-10-04 11h12.41.560999 +0530,
76,0,76,0,129.7140819998458,,129.69414719985798,5,129.7140819998458,129.7140819998458,0.010965200141072273,131.74046249990351,[-0.36689814814814814],[0.29398148148148145],[1],[0],[0],[2.035300899995491],['target'],351306,001,2024-10-04_11h12.36.665,VisualSearch,2024.1.5,None,2024-10-04 11h12.41.560999 +0530,
77,0,77,0,131.77769959997386,,131.74523799982853,5,131.77769959997386,131.77769959997386,0.022307800129055977,133.06067629996687,[-0.0763888888888889],[0.08217592592592593],[1],[0],[0],[1.2933530998416245],['target'],351306,001,2024-10-04_11h12.36.665,VisualSearch,2024.1.5,None,2024-10-04 11h12.41.560999 +0530,
78,0,78,0,133.10033209994435,,133.06695009977557,5,133.10033209994435,133.10033209994435,0.023623199900612235,134.37297109980136,[0.09490740740740741],[0.16666666666666666],[1],[0],[0],[1.2827906000893563],['target'],351306,001,2024-10-04_11h12.36.665,VisualSearch,2024.1.5,None,2024-10-04 11h12.41.560999 +0530,
79,0,79,0,134.45614029979333,,134.3795278999023,10,134.45614029979333,134.45614029979333,0.05780160007998347,135.8039192999713,[-0.07523148148148148],[0.034722222222222224],[1],[0],[0],[1.3675871999002993],['target'],351306,001,2024-10-04_11h12.36.665,VisualSearch,2024.1.5,None,2024-10-04 11h12.41.560999 +0530,
80,0,80,0,135.84452989976853,,135.80912579991855,5,135.84452989976853,135.84452989976853,0.02420930005609989,137.58578859991394,[0.17476851851851852],[-0.29050925925925924],[1],[0],[0],[1.7531057999003679],['target'],351306,001,2024-10-04_11h12.36.665,VisualSearch,2024.1.5,None,2024-10-04 11h12.41.560999 +0530,
81,0,81,0,137.62272949982435,,137.59003809979185,5,137.62272949982435,137.62272949982435,0.021993600064888597,138.90106289996766,[-0.1736111111111111],[0.125],[1],[0],[0],[1.289270699955523],['target'],351306,001,2024-10-04_11h12.36.665,VisualSearch,2024.1.5,None,2024-10-04 11h12.41.560999 +0530,
82,0,82,0,138.98212879989296,,138.90896609984338,10,138.98212879989296,138.98212879989296,0.05492060002870858,140.69924319977872,[0.34953703703703703],[-0.44675925925925924],[1],[0],[0],[1.7364704001229256],['target'],351306,001,2024-10-04_11h12.36.665,VisualSearch,2024.1.5,None,2024-10-04 11h12.41.560999 +0530,
83,0,83,0,140.73397329985164,,140.70335139986128,5,140.73397329985164,140.73397329985164,0.021327299997210503,142.23117309994996,[0.4675925925925926],[-0.3726851851851852],[1],[0],[0],[1.5069454000331461],['target'],351306,001,2024-10-04_11h12.36.665,VisualSearch,2024.1.5,None,2024-10-04 11h12.41.560999 +0530,
84,0,84,0,142.29965089983307,,142.23561489977874,10,142.29965089983307,142.29965089983307,0.04655780014581978,143.96340059977956,[-0.14583333333333334],[-0.14583333333333334],[1],[0],[0],[1.681601099902764],['target'],351306,001,2024-10-04_11h12.36.665,VisualSearch,2024.1.5,None,2024-10-04 11h12.41.560999 +0530,
85,0,85,0,144.03084679995663,,143.9680141999852,10,144.03084679995663,144.03084679995663,0.04567889985628426,145.2804235999938,[-0.04976851851851852],[-0.13078703703703703],[1],[0],[0],[1.2671145999338478],['target'],351306,001,2024-10-04_11h12.36.665,VisualSearch,2024.1.5,None,2024-10-04 11h12.41.560999 +0530,
86,0,86,0,145.31671479996294,,145.28628309979104,5,145.31671479996294,145.31671479996294,0.021577199921011925,146.14394039986655,[-0.032407407407407406],[-0.12268518518518519],[1],[0],[0],[0.8365289999637753],['target'],351306,001,2024-10-04_11h12.36.665,VisualSearch,2024.1.5,None,2024-10-04 11h12.41.560999 +0530,
87,0,87,0,146.21256439993158,,146.14842029986903,10,146.21256439993158,146.21256439993158,0.04824719997122884,147.7586933998391,[0.2326388888888889],[-0.29282407407407407],[1],[0],[0],[1.5625130999833345],['target'],351306,001,2024-10-04_11h12.36.665,VisualSearch,2024.1.5,None,2024-10-04 11h12.41.560999 +0530,
88,0,88,0,147.7955096999649,,147.76087609981187,10,147.7955096999649,147.7955096999649,0.022637300193309784,150.38579589989968,[0.45601851851851855],[0.39467592592592593],[1],[0],[0],[2.6022193001117557],['target'],351306,001,2024-10-04_11h12.36.665,VisualSearch,2024.1.5,None,2024-10-04 11h12.41.560999 +0530,
89,0,89,0,150.42505229986273,,150.39010779978707,5,150.42505229986273,150.42505229986273,0.023332900134846568,151.5900658997707,[0.41087962962962965],[0.48032407407407407],[1],[0],[0],[1.1767653001006693],['target'],351306,001,2024-10-04_11h12.36.665,VisualSearch,2024.1.5,None,2024-10-04 11h12.41.560999 +0530,
90,0,90,0,151.64478869992308,,151.5979438999202,5,151.64478869992308,151.64478869992308,0.03165030013769865,153.30362889985554,[0.21180555555555555],[-0.04282407407407408],[1],[0],[0],[1.6751056001521647],['target'],351306,001,2024-10-04_11h12.36.665,VisualSearch,2024.1.5,None,2024-10-04 11h12.41.560999 +0530,
91,0,91,0,153.33891679998487,,153.30586119997315,10,153.33891679998487,153.33891679998487,0.022540300153195858,154.9185562999919,[0.45601851851851855],[-0.1863425925925926],[1],[0],[0],[1.5901586001273245],['target'],351306,001,2024-10-04_11h12.36.665,VisualSearch,2024.1.5,None,2024-10-04 11h12.41.560999 +0530,
92,0,92,0,154.9758760998957,,154.92230799980462,10,154.9758760998957,154.9758760998957,0.039176000049337745,157.36674459977075,[0.1909722222222222],[-0.15162037037037038],[1],[0],[0],[2.405447999946773],['target'],351306,001,2024-10-04_11h12.36.665,VisualSearch,2024.1.5,None,2024-10-04 11h12.41.560999 +0530,
93,0,93,0,157.41652639978565,,157.36982819996774,5,157.41652639978565,157.41652639978565,0.034920800011605024,159.06516369991004,[-0.009259259259259259],[0.30787037037037035],[1],[0],[0],[1.6606808998622],['target'],351306,001,2024-10-04_11h12.36.665,VisualSearch,2024.1.5,None,2024-10-04 11h12.41.560999 +0530,
94,0,94,0,159.12827289989218,,159.06960539985448,10,159.12827289989218,159.12827289989218,0.04912089998833835,160.1645581999328,[-0.22685185185185186],[0.31712962962962965],[1],[0],[0],[1.0463353001978248],['target'],351306,001,2024-10-04_11h12.36.665,VisualSearch,2024.1.5,None,2024-10-04 11h12.41.560999 +0530,
95,0,95,0,160.18747309991159,,160.1677407999523,5,160.18747309991159,160.18747309991159,0.013565199915319681,161.84637779998593,[0.44675925925925924],[0.19212962962962962],[1],[0],[0],[1.6653289999812841],[],351306,001,2024-10-04_11h12.36.665,VisualSearch,2024.1.5,None,2024-10-04 11h12.41.560999 +0530,
96,0,96,0,161.87105109984986,,161.8494144999422,5,161.87105109984986,161.87105109984986,0.013337499927729368,162.8614105999004,[0.40162037037037035],[0.023148148148148147],[1],[0],[0],[0.9987245001830161],['target'],351306,001,2024-10-04_11h12.36.665,VisualSearch,2024.1.5,None,2024-10-04 11h12.41.560999 +0530,
97,0,97,0,162.88437139987946,,162.8640971998684,5,162.88437139987946,162.88437139987946,0.012107400223612785,164.39417189988308,[0.0023148148148148147],[0.2604166666666667],[1],[0],[0],[1.518071600003168],['target'],351306,001,2024-10-04_11h12.36.665,VisualSearch,2024.1.5,None,2024-10-04 11h12.41.560999 +0530,
98,0,98,0,164.44028649991378,,164.3984283998143,10,164.44028649991378,164.44028649991378,0.031176399905234575,165.9253175999038,[0.3773148148148148],[0.0787037037037037],[1],[0],[0],[1.496130600105971],['target'],351306,001,2024-10-04_11h12.36.665,VisualSearch,2024.1.5,None,2024-10-04 11h12.41.560999 +0530,
99,0,99,0,165.9651802999433,,165.92979529988952,5,165.9651802999433,165.9651802999433,0.024559799814596772,167.0904532999266,[0.1875],[0.29398148148148145],[1],[0],[0],[1.1367174999322742],['target'],351306,001,2024-10-04_11h12.36.665,VisualSearch,2024.1.5,None,2024-10-04 11h12.41.560999 +0530,
100,0,100,0,167.12900439999066,,167.0929626999423,10,167.12900439999066,167.12900439999066,0.02451759995892644,169.54145289980806,[0.08333333333333333],[0.49074074074074076],[1],[0],[0],[2.4240419999696314],['target'],351306,001,2024-10-04_11h12.36.665,VisualSearch,2024.1.5,None,2024-10-04 11h12.41.560999 +0530,
101,0,101,0,169.58264329982921,,169.54635499999858,5,169.58264329982921,169.58264329982921,0.021684200037270784,171.15617139986716,[-0.43287037037037035],[-0.28935185185185186],[1],[0],[0],[1.5885755000635982],['target'],351306,001,2024-10-04_11h12.36.665,VisualSearch,2024.1.5,None,2024-10-04 11h12.41.560999 +0530,
102,0,102,0,171.21511699981056,,171.16277729999274,5,171.21511699981056,171.21511699981056,0.03723910008557141,173.16995539981872,[0.15625],[0.2662037037037037],[1],[0],[0],[1.9706317998934537],['target'],351306,001,2024-10-04_11h12.36.665,VisualSearch,2024.1.5,None,2024-10-04 11h12.41.560999 +0530,
103,0,103,0,173.26951369992457,,173.17644539987668,10,173.26951369992457,173.26951369992457,0.06692810007371008,174.6006814998109,[0.2037037037037037],[0.3819444444444444],[1],[0],[0],[1.3581400997936726],['target'],351306,001,2024-10-04_11h12.36.665,VisualSearch,2024.1.5,None,2024-10-04 11h12.41.560999 +0530,
104,0,104,0,174.63784269988537,,174.60500799980946,5,174.63784269988537,174.63784269988537,0.02127869985997677,176.3164485997986,[0.2337962962962963],[-0.18287037037037038],[1],[0],[0],[1.6903717000968754],['target'],351306,001,2024-10-04_11h12.36.665,VisualSearch,2024.1.5,None,2024-10-04 11h12.41.560999 +0530,
105,0,105,0,176.36086199991405,,176.32323249988258,5,176.36086199991405,176.36086199991405,0.028313999995589256,177.5819835998118,[0.2326388888888889],[-0.0011574074074074073],[1],[0],[0],[1.2314589000307024],['target'],351306,001,2024-10-04_11h12.36.665,VisualSearch,2024.1.5,None,2024-10-04 11h12.41.560999 +0530,
106,0,106,0,177.65024289977737,,177.5863609998487,10,177.65024289977737,177.65024289977737,0.04357089987024665,179.19633739977144,[0.3587962962962963],[-0.23726851851851852],[1],[0],[0],[1.5668014001566917],['target'],351306,001,2024-10-04_11h12.36.665,VisualSearch,2024.1.5,None,2024-10-04 11h12.41.560999 +0530,
107,0,107,0,179.2311941999942,,179.20061029982753,5,179.2311941999942,179.2311941999942,0.020648099947720766,181.18116579996422,[-0.037037037037037035],[0.5],[1],[0],[0],[1.9600657001137733],['target'],351306,001,2024-10-04_11h12.36.665,VisualSearch,2024.1.5,None,2024-10-04 11h12.41.560999 +0530,
108,0,108,0,181.2672010997776,,181.18756769993342,10,181.2672010997776,181.2672010997776,0.06438500015065074,183.34244799986482,[-0.11805555555555555],[-0.19791666666666666],[1],[0],[0],[2.091345499968156],['target'],351306,001,2024-10-04_11h12.36.665,VisualSearch,2024.1.5,None,2024-10-04 11h12.41.560999 +0530,
109,0,109,0,183.37957019987516,,183.34667889983393,5,183.37957019987516,183.37957019987516,0.021171099971979856,184.90905729983933,[0.23726851851851852],[-0.08564814814814815],[1],[0],[0],[1.5413027999456972],['target'],351306,001,2024-10-04_11h12.36.665,VisualSearch,2024.1.5,None,2024-10-04 11h12.41.560999 +0530,
110,0,110,0,184.9538555999752,,184.91603559977375,5,184.9538555999752,184.9538555999752,0.029265800025314093,186.4741402999498,[-0.21064814814814814],[-0.006944444444444444],[1],[0],[0],[1.5299218001309782],['target'],351306,001,2024-10-04_11h12.36.665,VisualSearch,2024.1.5,None,2024-10-04 11h12.41.560999 +0530,
111,0,111,0,186.51483289990574,,186.47827589977533,5,186.51483289990574,186.51483289990574,0.024765399983152747,187.955418799771,[0.1400462962962963],[0.3125],[1],[0],[0],[1.4525621000211686],['target'],351306,001,2024-10-04_11h12.36.665,VisualSearch,2024.1.5,None,2024-10-04 11h12.41.560999 +0530,
112,0,112,0,188.00985099980608,,187.96242629992776,5,188.00985099980608,188.00985099980608,0.035467099864035845,189.61953879985958,[-0.4074074074074074],[-0.08333333333333333],[1],[0],[0],[1.6230677000712603],['target'],351306,001,2024-10-04_11h12.36.665,VisualSearch,2024.1.5,None,2024-10-04 11h12.41.560999 +0530,
113,0,113,0,189.6419674998615,,189.62191629991867,5,189.6419674998615,189.6419674998615,0.01139650004915893,191.38554079993628,[0.4027777777777778],[0.20833333333333334],[1],[0],[0],[1.7520208000205457],['target'],351306,001,2024-10-04_11h12.36.665,VisualSearch,2024.1.5,None,2024-10-04 11h12.41.560999 +0530,
114,0,114,0,191.42311359988526,,191.3877326999791,5,191.42311359988526,191.42311359988526,0.019107199972495437,193.1182052998338,[-0.10416666666666667],[0.24421296296296297],[1],[0],[0],[1.7110131001099944],['target'],351306,001,2024-10-04_11h12.36.665,VisualSearch,2024.1.5,None,2024-10-04 11h12.41.560999 +0530,
115,0,115,0,193.2004651997704,,193.12481189984828,10,193.2004651997704,193.2004651997704,0.05549499997869134,194.9827904999256,[-0.09143518518518519],[0.4270833333333333],[1],[0],[0],[1.8034014999866486],['target'],351306,001,2024-10-04_11h12.36.665,VisualSearch,2024.1.5,None,2024-10-04 11h12.41.560999 +0530,
116,0,116,0,195.00390719994903,,194.98507999978028,5,195.00390719994903,195.00390719994903,0.01269140001386404,196.94785219989717,[-0.44212962962962965],[-0.3472222222222222],[1],[0],[0],[1.9498131999280304],['target'],351306,001,2024-10-04_11h12.36.665,VisualSearch,2024.1.5,None,2024-10-04 11h12.41.560999 +0530,
117,0,117,0,197.03165169991553,,196.9544658998493,10,197.03165169991553,197.03165169991553,0.061144699808210135,198.5609433997888,[-0.2604166666666667],[-0.41898148148148145],[1],[0],[0],[1.5464357000309974],['target'],351306,001,2024-10-04_11h12.36.665,VisualSearch,2024.1.5,None,2024-10-04 11h12.41.560999 +0530,
118,0,118,0,198.58784389984794,,198.56386279989965,5,198.58784389984794,198.58784389984794,0.017149499850347638,201.1450669998303,[-0.03009259259259259],[0.020833333333333332],[1],[0],[0],[2.563906399998814],['target'],351306,001,2024-10-04_11h12.36.665,VisualSearch,2024.1.5,None,2024-10-04 11h12.41.560999 +0530,
119,0,119,0,201.19190559978597,,201.15147169982083,5,201.19190559978597,201.19190559978597,0.02849239995703101,202.57474249997176,[-0.3819444444444444],[-0.09490740740740741],[1],[0],[0],[1.395740699954331],['target'],351306,001,2024-10-04_11h12.36.665,VisualSearch,2024.1.5,None,2024-10-04 11h12.41.560999 +0530,
120,0,120,0,202.64530719979666,,202.57901869993657,10,202.64530719979666,202.64530719979666,0.042306800140067935,205.42149989982136,[0.31712962962962965],[0.34375],[1],[0],[0],[2.8006113001611084],['target'],351306,001,2024-10-04_11h12.36.665,VisualSearch,2024.1.5,None,2024-10-04 11h12.41.560999 +0530,
121,0,121,0,205.45732059981674,,205.42598029994406,5,205.45732059981674,205.45732059981674,0.021377800032496452,207.7222511,[0.18518518518518517],[0.47453703703703703],[1],[0],[0],[2.2753317998722196],['target'],351306,001,2024-10-04_11h12.36.665,VisualSearch,2024.1.5,None,2024-10-04 11h12.41.560999 +0530,
122,0,122,0,207.76093899994157,,207.72644219989888,5,207.76093899994157,207.76093899994157,0.02405390003696084,209.26932849991135,[-0.011574074074074073],[0.06944444444444445],[1],[0],[0],[1.5188184999860823],['target'],351306,001,2024-10-04_11h12.36.665,VisualSearch,2024.1.5,None,2024-10-04 11h12.41.560999 +0530,
123,0,123,0,209.32323809992522,,209.27585099986754,5,209.32323809992522,209.32323809992522,0.03301279991865158,210.92037799977697,[0.3472222222222222],[-0.041666666666666664],[1],[0],[0],[1.612171299988404],['target'],351306,001,2024-10-04_11h12.36.665,VisualSearch,2024.1.5,None,2024-10-04 11h12.41.560999 +0530,
124,0,124,0,210.98207859997638,,210.92722999979742,5,210.98207859997638,210.98207859997638,0.04087950009852648,212.4663168999832,[0.4212962962962963],[0.41898148148148145],[1],[0],[0],[1.4990346000995487],['target'],351306,001,2024-10-04_11h12.36.665,VisualSearch,2024.1.5,None,2024-10-04 11h12.41.560999 +0530,
125,0,125,0,212.5737063998822,,212.47298099985346,10,212.5737063998822,212.5737063998822,0.07034320011734962,214.04443639982492,[0.2708333333333333],[0.11342592592592593],[1],[0],[0],[1.50194409978576],['target'],351306,001,2024-10-04_11h12.36.665,VisualSearch,2024.1.5,None,2024-10-04 11h12.41.560999 +0530,
126,0,126,0,214.0889360997826,,214.0473672999069,5,214.0889360997826,214.0889360997826,0.025194399990141392,215.95189369982108,[0.21180555555555555],[0.08680555555555555],[1],[0],[0],[1.8791865999810398],['target'],351306,001,2024-10-04_11h12.36.665,VisualSearch,2024.1.5,None,2024-10-04 11h12.41.560999 +0530,
127,0,127,0,216.00690119992942,,215.95848879986443,5,216.00690119992942,216.00690119992942,0.033996300073340535,217.32776129990816,[0.11226851851851852],[0.14467592592592593],[1],[0],[0],[1.3364000001456589],['target'],351306,001,2024-10-04_11h12.36.665,VisualSearch,2024.1.5,None,2024-10-04 11h12.41.560999 +0530,
128,0,128,0,217.4108999997843,,217.33452449995093,10,217.4108999997843,217.4108999997843,0.05980899999849498,219.525523299817,[-0.42592592592592593],[-0.20601851851851852],[1],[0],[0],[2.132057199953124],['target'],351306,001,2024-10-04_11h12.36.665,VisualSearch,2024.1.5,None,2024-10-04 11h12.41.560999 +0530,
129,0,129,0,219.57665789988823,,219.5303811999038,10,219.57665789988823,219.57665789988823,0.037595100002363324,220.65761589980684,[-0.40046296296296297],[-0.1087962962962963],[1],[0],[0],[1.090220999903977],['target'],351306,001,2024-10-04_11h12.36.665,VisualSearch,2024.1.5,None,2024-10-04 11h12.41.560999 +0530,
130,0,130,0,220.7079079998657,,220.66002539987676,10,220.7079079998657,220.7079079998657,0.03695550002157688,223.00543949985877,[0.40162037037037035],[-0.3263888888888889],[1],[0],[0],[2.3083069000858814],['target'],351306,001,2024-10-04_11h12.36.665,VisualSearch,2024.1.5,None,2024-10-04 11h12.41.560999 +0530,
131,0,131,0,223.03991099982522,,223.01002309983596,5,223.03991099982522,223.03991099982522,0.02046540006995201,224.77061039977707,[-0.0775462962962963],[-0.40046296296296297],[1],[0],[0],[1.7404771000146866],['target'],351306,001,2024-10-04_11h12.36.665,VisualSearch,2024.1.5,None,2024-10-04 11h12.41.560999 +0530,
132,0,132,0,224.83251769980416,,224.77435399987735,10,224.83251769980416,224.83251769980416,0.042763000121340156,226.16883739992045,[0.03935185185185185],[-0.3541666666666667],[1],[0],[0],[1.3521243000868708],['target'],351306,001,2024-10-04_11h12.36.665,VisualSearch,2024.1.5,None,2024-10-04 11h12.41.560999 +0530,
133,0,133,0,226.20527459983714,,226.17278899997473,5,226.20527459983714,226.20527459983714,0.02114570001140237,227.80131829995662,[0.14351851851851852],[0.2951388888888889],[1],[0],[0],[1.607582800090313],['target'],351306,001,2024-10-04_11h12.36.665,VisualSearch,2024.1.5,None,2024-10-04 11h12.41.560999 +0530,
134,0,134,0,227.85427249991335,,227.80559109989554,10,227.85427249991335,227.85427249991335,0.038670700043439865,229.16621309984475,[0.40162037037037035],[0.2673611111111111],[1],[0],[0],[1.3222532998770475],['target'],351306,001,2024-10-04_11h12.36.665,VisualSearch,2024.1.5,None,2024-10-04 11h12.41.560999 +0530,
135,0,135,0,229.2007197998464,,229.17042199987918,5,229.2007197998464,229.2007197998464,0.019936300115659833,230.5171816998627,[0.4097222222222222],[0.11226851851851852],[1],[0],[0],[1.3269572998397052],['target'],351306,001,2024-10-04_11h12.36.665,VisualSearch,2024.1.5,None,2024-10-04 11h12.41.560999 +0530,
136,0,136,0,230.55980129982345,,230.52376949996687,5,230.55980129982345,230.55980129982345,0.02785279997624457,232.09878729982302,[-0.17592592592592593],[-0.11342592592592593],[1],[0],[0],[1.5477527000475675],['target'],351306,001,2024-10-04_11h12.36.665,VisualSearch,2024.1.5,None,2024-10-04 11h12.41.560999 +0530,
137,0,137,0,232.16797249997035,,232.10543089988641,10,232.16797249997035,232.16797249997035,0.05281629995442927,234.96182289998978,[0.14930555555555555],[-0.38773148148148145],[1],[0],[0],[2.804474900010973],['target'],351306,001,2024-10-04_11h12.36.665,VisualSearch,2024.1.5,None,2024-10-04 11h12.41.560999 +0530,
138,0,138,0,234.99524009996094,,234.96574569982477,5,234.99524009996094,234.99524009996094,0.02031320007517934,236.89679699996486,[0.22453703703703703],[-0.48148148148148145],[1],[0],[0],[1.9108473001979291],['target'],351306,001,2024-10-04_11h12.36.665,VisualSearch,2024.1.5,None,2024-10-04 11h12.41.560999 +0530,
139,0,139,0,236.96966389985755,,236.90333739994094,10,236.96966389985755,236.96966389985755,0.05113180004991591,238.45701809995808,[0.19212962962962962],[-0.04861111111111111],[1],[0],[0],[1.503737600054592],['target'],351306,001,2024-10-04_11h12.36.665,VisualSearch,2024.1.5,None,2024-10-04 11h12.41.560999 +0530,
140,0,140,0,238.47756149992347,,238.4593902998604,5,238.47756149992347,238.47756149992347,0.011112899985164404,239.77259999979287,[0.02199074074074074],[-0.08564814814814815],[1],[0],[0],[1.302224799990654],['target'],351306,001,2024-10-04_11h12.36.665,VisualSearch,2024.1.5,None,2024-10-04 11h12.41.560999 +0530,
141,0,141,0,239.7964899998624,,239.7759959998075,5,239.7964899998624,239.7964899998624,0.01438200008124113,241.29004339990206,[-0.09722222222222222],[0.2013888888888889],[1],[0],[0],[1.499299000017345],['target'],351306,001,2024-10-04_11h12.36.665,VisualSearch,2024.1.5,None,2024-10-04 11h12.41.560999 +0530,
142,0,142,0,241.34417099994607,,241.29653149982914,5,241.34417099994607,241.34417099994607,0.03320239996537566,242.78820009995252,[-0.25810185185185186],[-0.07523148148148148],[1],[0],[0],[1.4594946999568492],['target'],351306,001,2024-10-04_11h12.36.665,VisualSearch,2024.1.5,None,2024-10-04 11h12.41.560999 +0530,
143,0,143,0,242.83130299998447,,242.79263049992733,10,242.83130299998447,242.83130299998447,0.03048430010676384,244.91796369990334,[0.027777777777777776],[0.08217592592592593],[1],[0],[0],[2.0952968997880816],['target'],351306,001,2024-10-04_11h12.36.665,VisualSearch,2024.1.5,None,2024-10-04 11h12.41.560999 +0530,
144,0,144,0,244.9776943998877,,244.92253099987283,10,244.9776943998877,244.9776943998877,0.038909099996089935,246.58295779977925,[0.27546296296296297],[0.08564814814814815],[1],[0],[0],[1.6221422001253814],['target'],351306,001,2024-10-04_11h12.36.665,VisualSearch,2024.1.5,None,2024-10-04 11h12.41.560999 +0530,
145,0,145,0,246.611174199963,,246.58528919983655,5,246.611174199963,246.611174199963,0.01998250000178814,247.99852479994297,[0.1875],[0.25578703703703703],[1],[0],[0],[1.3934493998531252],['target'],351306,001,2024-10-04_11h12.36.665,VisualSearch,2024.1.5,None,2024-10-04 11h12.41.560999 +0530,
146,0,146,0,248.03700969996862,,248.000802999828,10,248.03700969996862,248.03700969996862,0.02677420014515519,251.20757949980907,[-0.36226851851851855],[0.25925925925925924],[1],[0],[0],[3.1797737998422235],['target'],351306,001,2024-10-04_11h12.36.665,VisualSearch,2024.1.5,None,2024-10-04 11h12.41.560999 +0530,
147,0,147,0,251.2622526998166,,251.21451209997758,5,251.2622526998166,251.2622526998166,0.03466539992950857,252.87682349979877,[0.1284722222222222],[0.1111111111111111],[1],[0],[0],[1.6288048001006246],['target'],351306,001,2024-10-04_11h12.36.665,VisualSearch,2024.1.5,None,2024-10-04 11h12.41.560999 +0530,
148,0,148,0,252.90034049982205,,252.87919249990955,5,252.90034049982205,252.90034049982205,0.014861500123515725,254.67652809992433,[0.4849537037037037],[0.3923611111111111],[1],[0],[0],[1.7822052000556141],['target'],351306,001,2024-10-04_11h12.36.665,VisualSearch,2024.1.5,None,2024-10-04 11h12.41.560999 +0530,
149,0,149,0,254.7403297999408,,254.68339129979722,10,254.7403297999408,254.7403297999408,0.04719189996831119,259.3057101999875,[-0.1284722222222222],[0.009259259259259259],[1],[0],[0],[4.575849799904972],['target'],351306,001,2024-10-04_11h12.36.665,VisualSearch,2024.1.5,None,2024-10-04 11h12.41.560999 +0530,
150,0,150,0,259.3587850998156,,259.31213399977423,5,259.3587850998156,259.3587850998156,0.03156050015240908,261.57081449986435,[0.24537037037037038],[0.14583333333333334],[1],[0],[0],[2.227726300014183],['target'],351306,001,2024-10-04_11h12.36.665,VisualSearch,2024.1.5,None,2024-10-04 11h12.41.560999 +0530,
151,0,151,0,261.6517328999471,,261.5773158997763,10,261.6517328999471,261.6517328999471,0.057776100002229214,262.9860059998464,[0.20717592592592593],[0.020833333333333332],[1],[0],[0],[1.3517676000483334],['target'],351306,001,2024-10-04_11h12.36.665,VisualSearch,2024.1.5,None,2024-10-04 11h12.41.560999 +0530,
152,0,152,0,263.0605009999126,,262.99194589979015,10,263.0605009999126,263.0605009999126,0.05238509993068874,264.48271799995564,[0.02546296296296296],[0.45717592592592593],[1],[0],[0],[1.4391016999725252],['target'],351306,001,2024-10-04_11h12.36.665,VisualSearch,2024.1.5,None,2024-10-04 11h12.41.560999 +0530,
153,0,153,0,264.5115313997958,,264.48497299989685,5,264.5115313997958,264.5115313997958,0.010783299803733826,266.05113249993883,[0.15393518518518517],[-0.24074074074074073],[1],[0],[0],[1.5548847001045942],['target'],351306,001,2024-10-04_11h12.36.665,VisualSearch,2024.1.5,None,2024-10-04 11h12.41.560999 +0530,
154,0,154,0,266.14541699993424,,266.05769469984807,10,266.14541699993424,266.14541699993424,0.06494059995748103,267.86480989982374,[0.47337962962962965],[-0.034722222222222224],[1],[0],[0],[1.7429988000076264],['target'],351306,001,2024-10-04_11h12.36.665,VisualSearch,2024.1.5,None,2024-10-04 11h12.41.560999 +0530,
155,0,155,0,267.8992133999709,,267.86903229984455,5,267.8992133999709,267.8992133999709,0.020726000191643834,270.5447328998707,[-0.4085648148148148],[0.3912037037037037],[1],[0],[0],[2.6554813999682665],['target'],351306,001,2024-10-04_11h12.36.665,VisualSearch,2024.1.5,None,2024-10-04 11h12.41.560999 +0530,
156,0,156,0,270.61204979987815,,270.5491144999396,10,270.61204979987815,270.61204979987815,0.04369230009615421,271.9849896999076,[-0.14699074074074073],[-0.1111111111111111],[1],[0],[0],[1.3922317000105977],['target'],351306,001,2024-10-04_11h12.36.665,VisualSearch,2024.1.5,None,2024-10-04 11h12.41.560999 +0530,
157,0,157,0,272.0608784998767,,271.9920541997999,10,272.0608784998767,272.0608784998767,0.05277299997396767,274.0913456999697,[0.08333333333333333],[-0.14699074074074073],[1],[0],[0],[2.047749300021678],['target'],351306,001,2024-10-04_11h12.36.665,VisualSearch,2024.1.5,None,2024-10-04 11h12.41.560999 +0530,
158,0,158,0,274.1266087999102,,274.0955948999617,5,274.1266087999102,274.1266087999102,0.021163800032809377,275.60686469986103,[-0.08564814814814815],[0.04861111111111111],[1],[0],[0],[1.4904092999640852],['target'],351306,001,2024-10-04_11h12.36.665,VisualSearch,2024.1.5,None,2024-10-04 11h12.41.560999 +0530,
159,0,159,0,275.6922718998976,,275.6110162998084,10,275.6922718998976,275.6922718998976,0.05445970012806356,277.8710223999806,[0.10532407407407407],[-0.3784722222222222],[1],[0],[0],[2.2058060001581907],['target'],351306,001,2024-10-04_11h12.36.665,VisualSearch,2024.1.5,None,2024-10-04 11h12.41.560999 +0530,
160,0,160,0,277.9258385999128,,277.87514919997193,10,277.9258385999128,277.9258385999128,0.03991000005044043,280.9351374998223,[0.22685185185185186],[0.3449074074074074],[1],[0],[0],[3.0203257999382913],['target'],351306,001,2024-10-04_11h12.36.665,VisualSearch,2024.1.5,None,2024-10-04 11h12.41.560999 +0530,
161,0,161,0,280.9745255999733,,280.9380181999877,10,280.9745255999733,280.9745255999733,0.022370199905708432,283.14854419999756,[-0.46296296296296297],[0.2662037037037037],[1],[0],[0],[2.1884446998592466],['target'],351306,001,2024-10-04_11h12.36.665,VisualSearch,2024.1.5,None,2024-10-04 11h12.41.560999 +0530,
162,0,162,0,283.1929122998845,,283.15136719984,10,283.1929122998845,283.1929122998845,0.028295799857005477,284.8806016999297,[0.19675925925925927],[0.011574074074074073],[1],[0],[0],[1.701038399944082],['target'],351306,001,2024-10-04_11h12.36.665,VisualSearch,2024.1.5,None,2024-10-04 11h12.41.560999 +0530,
163,0,163,0,284.907315999968,,284.8829397999216,5,284.907315999968,284.907315999968,0.01741329999640584,286.51419689995237,[-0.0625],[0.16550925925925927],[1],[0],[0],[1.6136385998688638],['target'],351306,001,2024-10-04_11h12.36.665,VisualSearch,2024.1.5,None,2024-10-04 11h12.41.560999 +0530,
164,0,164,0,286.56254709977657,,286.5204343998339,5,286.56254709977657,286.56254709977657,0.030309299938380718,288.25170509982854,[-0.13541666666666666],[-0.33564814814814814],[1],[0],[0],[1.7015782999806106],['target'],351306,001,2024-10-04_11h12.36.665,VisualSearch,2024.1.5,None,2024-10-04 11h12.41.560999 +0530,
165,0,165,0,288.32152709993534,,288.25985519983806,10,288.32152709993534,288.32152709993534,0.04767669993452728,290.19220219994895,[-0.0763888888888889],[-0.2604166666666667],[1],[0],[0],[1.8857183000072837],['target'],351306,001,2024-10-04_11h12.36.665,VisualSearch,2024.1.5,None,2024-10-04 11h12.41.560999 +0530,
166,0,166,0,290.22572669992223,,290.19608719996177,5,290.22572669992223,290.22572669992223,0.018966199830174446,292.0422587997746,[0.3287037037037037],[-0.3819444444444444],[1],[0],[0],[1.8272326001897454],['target'],351306,001,2024-10-04_11h12.36.665,VisualSearch,2024.1.5,None,2024-10-04 11h12.41.560999 +0530,
167,0,167,0,292.11266479990445,,292.04890999989584,10,292.11266479990445,292.11266479990445,0.04822039999999106,294.12204809999093,[-0.40625],[0.30787037037037035],[1],[0],[0],[2.025851799873635],['target'],351306,001,2024-10-04_11h12.36.665,VisualSearch,2024.1.5,None,2024-10-04 11h12.41.560999 +0530,
168,0,168,0,294.1845142999664,,294.1261773998849,10,294.1845142999664,294.1845142999664,0.04279149998910725,295.2729321999941,[-0.41203703703703703],[0.26967592592592593],[1],[0],[0],[1.104423400014639],['target'],351306,001,2024-10-04_11h12.36.665,VisualSearch,2024.1.5,None,2024-10-04 11h12.41.560999 +0530,
169,0,169,0,295.3063921998255,,295.27701889979653,5,295.3063921998255,295.3063921998255,0.019634699914604425,296.9210120998323,[-0.27546296296296297],[0.38425925925925924],[1],[0],[0],[1.6245297999121249],['target'],351306,001,2024-10-04_11h12.36.665,VisualSearch,2024.1.5,None,2024-10-04 11h12.41.560999 +0530,
170,0,170,0,296.97033919999376,,296.9278287999332,5,296.97033919999376,296.97033919999376,0.03304760018363595,299.0356482998468,[0.30324074074074076],[-0.34953703703703703],[1],[0],[0],[2.0756733000744134],['target'],351306,001,2024-10-04_11h12.36.665,VisualSearch,2024.1.5,None,2024-10-04 11h12.41.560999 +0530,
171,0,171,0,299.10290969978087,,299.042585699819,10,299.10290969978087,299.10290969978087,0.04583339998498559,301.50446489988826,[-0.4849537037037037],[-0.011574074074074073],[1],[0],[0],[2.416968100005761],['target'],351306,001,2024-10-04_11h12.36.665,VisualSearch,2024.1.5,None,2024-10-04 11h12.41.560999 +0530,
172,0,172,0,301.53658479987644,,301.5084340998437,5,301.53658479987644,301.53658479987644,0.01994389994069934,303.04996609990485,[-0.3541666666666667],[-0.2361111111111111],[1],[0],[0],[1.521653600037098],['target'],351306,001,2024-10-04_11h12.36.665,VisualSearch,2024.1.5,None,2024-10-04 11h12.41.560999 +0530,
173,0,173,0,303.11319729988463,,303.05637759994715,5,303.11319729988463,303.11319729988463,0.03717690007761121,304.8296045998577,[-0.027777777777777776],[0.3912037037037037],[1],[0],[0],[1.7367818001657724],['target'],351306,001,2024-10-04_11h12.36.665,VisualSearch,2024.1.5,None,2024-10-04 11h12.41.560999 +0530,
174,0,174,0,304.9010492998641,,304.8368844999932,10,304.9010492998641,304.9010492998641,0.052375800209119916,308.0523713999428,[0.2326388888888889],[-0.38425925925925924],[1],[0],[0],[3.163743699900806],['target'],351306,001,2024-10-04_11h12.36.665,VisualSearch,2024.1.5,None,2024-10-04 11h12.41.560999 +0530,
175,0,175,0,308.1523023999762,,308.0597312999889,10,308.1523023999762,308.1523023999762,0.0635714998934418,310.5075663998723,[-0.3645833333333333],[-0.1574074074074074],[1],[0],[0],[2.3850173000246286],['target'],351306,001,2024-10-04_11h12.36.665,VisualSearch,2024.1.5,None,2024-10-04 11h12.41.560999 +0530,
176,0,176,0,310.5438426998444,,310.51144749997184,5,310.5438426998444,310.5438426998444,0.021348800044506788,312.24074179981835,[0.11342592592592593],[0.4351851851851852],[1],[0],[0],[1.7078815998975188],['target'],351306,001,2024-10-04_11h12.36.665,VisualSearch,2024.1.5,None,2024-10-04 11h12.41.560999 +0530,
177,0,177,0,312.30604589986615,,312.24828479997814,10,312.30604589986615,312.30604589986615,0.04598299995996058,314.3377536998596,[0.2013888888888889],[-0.3020833333333333],[1],[0],[0],[2.044253599829972],['target'],351306,001,2024-10-04_11h12.36.665,VisualSearch,2024.1.5,None,2024-10-04 11h12.41.560999 +0530,
178,0,178,0,314.3771116998978,,314.3404345999006,10,314.3771116998978,314.3771116998978,0.02502269996330142,316.5518883999903,[0.4652777777777778],[0.4027777777777778],[1],[0],[0],[2.1863394998945296],['target'],351306,001,2024-10-04_11h12.36.665,VisualSearch,2024.1.5,None,2024-10-04 11h12.41.560999 +0530,
179,0,179,0,316.5902951997705,,316.5559776998125,5,316.5902951997705,316.5902951997705,0.021809499943628907,318.3020228999667,[-0.2824074074074074],[-0.3506944444444444],[1],[0],[0],[1.7242215999867767],['target'],351306,001,2024-10-04_11h12.36.665,VisualSearch,2024.1.5,None,2024-10-04 11h12.41.560999 +0530,
180,0,180,0,318.39349849987775,,318.30857559992,10,318.39349849987775,318.39349849987775,0.06539239990524948,319.4486557999626,[-0.20949074074074073],[-0.32523148148148145],[1],[0],[0],[1.075684400042519],['target'],351306,001,2024-10-04_11h12.36.665,VisualSearch,2024.1.5,None,2024-10-04 11h12.41.560999 +0530,
181,0,181,0,319.48730849986896,,319.4510770998895,10,319.48730849986896,319.48730849986896,0.022611099993810058,320.9137512999587,[-0.30787037037037035],[-0.24421296296296297],[1],[0],[0],[1.4401241999585181],['target'],351306,001,2024-10-04_11h12.36.665,VisualSearch,2024.1.5,None,2024-10-04 11h12.41.560999 +0530,
182,0,182,0,320.9540482999291,,320.9160584998317,10,320.9540482999291,320.9540482999291,0.026032600086182356,322.564918999793,[-0.2025462962962963],[0.1875],[1],[0],[0],[1.6226472000125796],['target'],351306,001,2024-10-04_11h12.36.665,VisualSearch,2024.1.5,None,2024-10-04 11h12.41.560999 +0530,
183,0,183,0,322.60148699977435,,322.56907949992456,5,322.60148699977435,322.60148699977435,0.02049189992249012,324.0451357997954,[-0.2175925925925926],[0.3136574074074074],[1],[0],[0],[1.4556955001316965],['target'],351306,001,2024-10-04_11h12.36.665,VisualSearch,2024.1.5,None,2024-10-04 11h12.41.560999 +0530,
184,0,184,0,324.1413165999111,,324.051497399807,10,324.1413165999111,324.1413165999111,0.06577099999412894,325.9581741997972,[-0.33912037037037035],[0.3923611111111111],[1],[0],[0],[1.8419719999656081],['target'],351306,001,2024-10-04_11h12.36.665,VisualSearch,2024.1.5,None,2024-10-04 11h12.41.560999 +0530,
185,0,185,0,325.98257919983007,,325.96047109994106,5,325.98257919983007,325.98257919983007,0.013552600052207708,327.80762859992683,[-0.3263888888888889],[-0.40046296296296297],[1],[0],[0],[1.833772499812767],['target'],351306,001,2024-10-04_11h12.36.665,VisualSearch,2024.1.5,None,2024-10-04 11h12.41.560999 +0530,
186,0,186,0,327.8486921999138,,327.81022979994304,10,327.8486921999138,327.8486921999138,0.028243999928236008,329.5904034997802,[0.27546296296296297],[0.12037037037037036],[1],[0],[0],[1.751699399901554],['target'],351306,001,2024-10-04_11h12.36.665,VisualSearch,2024.1.5,None,2024-10-04 11h12.41.560999 +0530,
187,0,187,0,329.6407324997708,,329.5974416998215,5,329.6407324997708,329.6407324997708,0.03290820005349815,331.26048909989186,[0.4722222222222222],[0.04282407407407408],[1],[0],[0],[1.630850699963048],['target'],351306,001,2024-10-04_11h12.36.665,VisualSearch,2024.1.5,None,2024-10-04 11h12.41.560999 +0530,
188,0,188,0,331.362100899918,,331.2675614999607,10,331.362100899918,331.362100899918,0.06433379999361932,332.6363251998555,[0.061342592592592594],[-0.05555555555555555],[1],[0],[0],[1.3056840000208467],['target'],351306,001,2024-10-04_11h12.36.665,VisualSearch,2024.1.5,None,2024-10-04 11h12.41.560999 +0530,
189,0,189,0,332.6758683999069,,332.64042049995624,5,332.6758683999069,332.6758683999069,0.02293270011432469,334.351928899996,[-0.3761574074074074],[-0.04282407407407408],[1],[0],[0],[1.6887866999022663],['target'],351306,001,2024-10-04_11h12.36.665,VisualSearch,2024.1.5,None,2024-10-04 11h12.41.560999 +0530,
190,0,190,0,334.4284695999231,,334.35834429995157,10,334.4284695999231,334.4284695999231,0.0561124999076128,336.3987036999315,[0.1597222222222222],[-0.30324074074074076],[1],[0],[0],[1.9853659998625517],['target'],351306,001,2024-10-04_11h12.36.665,VisualSearch,2024.1.5,None,2024-10-04 11h12.41.560999 +0530,
191,0,191,0,336.4290656999219,,336.40100679988973,5,336.4290656999219,336.4290656999219,0.015266499947756529,337.898510399973,[0.11342592592592593],[0.1597222222222222],[1],[0],[0],[1.4821225998457521],['target'],351306,001,2024-10-04_11h12.36.665,VisualSearch,2024.1.5,None,2024-10-04 11h12.41.560999 +0530,
192,0,192,0,337.9366805998143,,337.9026849998627,5,337.9366805998143,337.9366805998143,0.02288930001668632,339.49687149981037,[-0.4513888888888889],[-0.05555555555555555],[1],[0],[0],[1.5717094999272376],['target'],351306,001,2024-10-04_11h12.36.665,VisualSearch,2024.1.5,None,2024-10-04 11h12.41.560999 +0530,
193,0,193,0,339.55941839981824,,339.50241449987516,10,339.55941839981824,339.55941839981824,0.04149469989351928,341.34575319988653,[-0.008101851851851851],[0.17476851851851852],[1],[0],[0],[1.8021527000237256],[],351306,001,2024-10-04_11h12.36.665,VisualSearch,2024.1.5,None,2024-10-04 11h12.41.560999 +0530,
194,0,194,0,341.37990139983594,,341.35343599994667,5,341.37990139983594,341.37990139983594,0.020481400191783905,343.159912499832,[-0.43287037037037035],[0.4039351851851852],[1],[0],[0],[1.7872324001509696],['target'],351306,001,2024-10-04_11h12.36.665,VisualSearch,2024.1.5,None,2024-10-04 11h12.41.560999 +0530,
195,0,195,0,343.2296438999474,,343.16443689982407,10,343.2296438999474,343.2296438999474,0.04168060002848506,344.4082555999048,[-0.2175925925925926],[0.3287037037037037],[1],[0],[0],[1.2027539000846446],[],351306,001,2024-10-04_11h12.36.665,VisualSearch,2024.1.5,None,2024-10-04 11h12.41.560999 +0530,
196,0,196,0,344.4326014998369,,344.4106083998922,5,344.4326014998369,344.4326014998369,0.013320200145244598,346.74162229988724,[-0.20833333333333334],[0.4652777777777778],[1],[0],[0],[2.317411999916658],['target'],351306,001,2024-10-04_11h12.36.665,VisualSearch,2024.1.5,None,2024-10-04 11h12.41.560999 +0530,
197,0,197,0,346.8294108998962,,346.7492270998191,10,346.8294108998962,346.8294108998962,0.05990860005840659,348.8207136997953,[0.19212962962962962],[-0.4340277777777778],[1],[0],[0],[2.013715700013563],['target'],351306,001,2024-10-04_11h12.36.665,VisualSearch,2024.1.5,None,2024-10-04 11h12.41.560999 +0530,
198,0,198,0,348.86161979986355,,348.8234285998624,10,348.86161979986355,348.86161979986355,0.026483400026336312,350.6190284998156,[0.38310185185185186],[-0.16666666666666666],[1],[0],[0],[1.7693469999358058],['target'],351306,001,2024-10-04_11h12.36.665,VisualSearch,2024.1.5,None,2024-10-04 11h12.41.560999 +0530,
199,0,199,0,350.6639617998153,,350.62147499993443,10,350.6639617998153,350.6639617998153,0.02787459990940988,352.10114139993675,[-0.018518518518518517],[-0.08564814814814815],[1],[0],[0],[1.4520039001945406],['target'],351306,001,2024-10-04_11h12.36.665,VisualSearch,2024.1.5,None,2024-10-04 11h12.41.560999 +0530,
