neut_words,math,trials.thisRepN,trials.thisTrialN,trials.thisN,trials.thisIndex,trials_2.thisRepN,trials_2.thisTrialN,trials_2.thisN,trials_2.thisIndex,trials_3.thisRepN,trials_3.thisTrialN,trials_3.thisN,trials_3.thisIndex,trials_4.thisRepN,trials_4.thisTrialN,trials_4.thisN,trials_4.thisIndex,thisRow.t,notes,Intro.started,Introduction.started,key_resp.started,Intro.stopped,key_resp.keys,key_resp.rt,key_resp.duration,Words.started,key_resp_2.started,text.started,Words.stopped,key_resp_2.keys,key_resp_2.rt,key_resp_2.duration,DisTask.started,task.started,textbox.started,InstText.started,mouse.started,DisTask.stopped,textbox.text,mouse.x,mouse.y,mouse.leftButton,mouse.midButton,mouse.rightButton,mouse.time,mouse.clicked_name,Recall.started,RecallTask.started,key_resp_3.started,Recall.stopped,key_resp_3.keys,key_resp_3.rt,key_resp_3.duration,Test.started,TestAns.started,Instr.started,mouse_2.started,Test.stopped,TestAns.text,mouse_2.x,mouse_2.y,mouse_2.leftButton,mouse_2.midButton,mouse_2.rightButton,mouse_2.time,mouse_2.clicked_name,participant,session,date,expName,psychopyVersion,frameRate,expStart,
,,0,0,0,0,,,,,,,,,,,,,0.010241900105029345,,0.005633499938994646,0.010241900105029345,1.0007114997133613,6.628636499866843,space,5.606955300085247,None,,,,,,,,,,,,,,,,,,,,,,,,,,,,,,,,,,,,,,,,,,02,001,2024-11-29_23h09.08.747,EmotionalValenceMemoryRecall,2024.1.5,None,2024-11-29 23h09.24.290055 +0530,
fabric,,,,,,0,0,0,2,,,,,,,,,6.663179699797183,,,,,,,,,6.645593400113285,6.663179699797183,8.143711599987,9.378559600096196,left,2.7066723997704685,None,,,,,,,,,,,,,,,,,,,,,,,,,,,,,,,,,,,02,001,2024-11-29_23h09.08.747,EmotionalValenceMemoryRecall,2024.1.5,None,2024-11-29 23h09.24.290055 +0530,
salad,,,,,,0,1,1,11,,,,,,,,,9.392502899747342,,,,,,,,,9.37977429991588,9.392502899747342,10.891276000067592,11.57558810012415,left,2.1816577999852598,None,,,,,,,,,,,,,,,,,,,,,,,,,,,,,,,,,,,02,001,2024-11-29_23h09.08.747,EmotionalValenceMemoryRecall,2024.1.5,None,2024-11-29 23h09.24.290055 +0530,
rain,,,,,,0,2,2,23,,,,,,,,,11.590198599733412,,,,,,,,,11.576373300049454,11.590198599733412,13.088999699801207,13.789379499852657,left,2.185912400018424,None,,,,,,,,,,,,,,,,,,,,,,,,,,,,,,,,,,,02,001,2024-11-29_23h09.08.747,EmotionalValenceMemoryRecall,2024.1.5,None,2024-11-29 23h09.24.290055 +0530,
black,,,,,,0,3,3,7,,,,,,,,,13.805071100126952,,,,,,,,,13.789843900129199,13.805071100126952,15.303838399704546,16.555088799912483,right,2.7392478003166616,None,,,,,,,,,,,,,,,,,,,,,,,,,,,,,,,,,,,02,001,2024-11-29_23h09.08.747,EmotionalValenceMemoryRecall,2024.1.5,None,2024-11-29 23h09.24.290055 +0530,
phase,,,,,,0,4,4,21,,,,,,,,,16.569441500119865,,,,,,,,,16.556237599812448,16.569441500119865,18.068297499790788,19.419044299982488,left,2.8380395001731813,None,,,,,,,,,,,,,,,,,,,,,,,,,,,,,,,,,,,02,001,2024-11-29_23h09.08.747,EmotionalValenceMemoryRecall,2024.1.5,None,2024-11-29 23h09.24.290055 +0530,
flag,,,,,,0,5,5,9,,,,,,,,,19.433513099793345,,,,,,,,,19.419955600053072,19.433513099793345,20.93182749999687,22.083997400011867,right,2.64775410015136,None,,,,,,,,,,,,,,,,,,,,,,,,,,,,,,,,,,,02,001,2024-11-29_23h09.08.747,EmotionalValenceMemoryRecall,2024.1.5,None,2024-11-29 23h09.24.290055 +0530,
truck,,,,,,0,6,6,15,,,,,,,,,22.098050099797547,,,,,,,,,22.08482229989022,22.098050099797547,23.596297699958086,25.080337299965322,left,2.965515200048685,None,,,,,,,,,,,,,,,,,,,,,,,,,,,,,,,,,,,02,001,2024-11-29_23h09.08.747,EmotionalValenceMemoryRecall,2024.1.5,None,2024-11-29 23h09.24.290055 +0530,
paper,,,,,,0,7,7,16,,,,,,,,,25.09493299992755,,,,,,,,,25.08119439985603,25.09493299992755,26.59367260010913,27.061630299780518,left,1.9523101998493075,None,,,,,,,,,,,,,,,,,,,,,,,,,,,,,,,,,,,02,001,2024-11-29_23h09.08.747,EmotionalValenceMemoryRecall,2024.1.5,None,2024-11-29 23h09.24.290055 +0530,
nurse,,,,,,0,8,8,22,,,,,,,,,27.076093399897218,,,,,,,,,27.062502599786967,27.076093399897218,28.574689500033855,29.094786500092596,left,2.015483899973333,None,,,,,,,,,,,,,,,,,,,,,,,,,,,,,,,,,,,02,001,2024-11-29_23h09.08.747,EmotionalValenceMemoryRecall,2024.1.5,None,2024-11-29 23h09.24.290055 +0530,
hat,,,,,,0,9,9,20,,,,,,,,,29.107923099771142,,,,,,,,,29.09571069991216,29.107923099771142,30.606661200057715,31.141653600148857,left,2.0202313996851444,None,,,,,,,,,,,,,,,,,,,,,,,,,,,,,,,,,,,02,001,2024-11-29_23h09.08.747,EmotionalValenceMemoryRecall,2024.1.5,None,2024-11-29 23h09.24.290055 +0530,
market,,,,,,0,10,10,18,,,,,,,,,31.155812399927527,,,,,,,,,31.142517799977213,31.155812399927527,32.65463909972459,33.622068299911916,left,2.4632477001287043,None,,,,,,,,,,,,,,,,,,,,,,,,,,,,,,,,,,,02,001,2024-11-29_23h09.08.747,EmotionalValenceMemoryRecall,2024.1.5,None,2024-11-29 23h09.24.290055 +0530,
custom,,,,,,0,11,11,8,,,,,,,,,33.6370676998049,,,,,,,,,33.62293209973723,33.6370676998049,35.13509549992159,35.52058669971302,left,1.8782893000170588,None,,,,,,,,,,,,,,,,,,,,,,,,,,,,,,,,,,,02,001,2024-11-29_23h09.08.747,EmotionalValenceMemoryRecall,2024.1.5,None,2024-11-29 23h09.24.290055 +0530,
finger,,,,,,0,12,12,10,,,,,,,,,35.53512049978599,,,,,,,,,35.52144940011203,35.53512049978599,37.03366620000452,37.55194030003622,left,2.006504400167614,None,,,,,,,,,,,,,,,,,,,,,,,,,,,,,,,,,,,02,001,2024-11-29_23h09.08.747,EmotionalValenceMemoryRecall,2024.1.5,None,2024-11-29 23h09.24.290055 +0530,
locker,,,,,,0,13,13,5,,,,,,,,,37.566482099704444,,,,,,,,,37.55270140012726,37.566482099704444,39.0648340000771,39.466268099844456,left,1.8856130000203848,None,,,,,,,,,,,,,,,,,,,,,,,,,,,,,,,,,,,02,001,2024-11-29_23h09.08.747,EmotionalValenceMemoryRecall,2024.1.5,None,2024-11-29 23h09.24.290055 +0530,
tool,,,,,,0,14,14,19,,,,,,,,,39.48130270000547,,,,,,,,,39.467148299794644,39.48130270000547,40.98027289984748,41.33132159989327,left,1.8367726001888514,None,,,,,,,,,,,,,,,,,,,,,,,,,,,,,,,,,,,02,001,2024-11-29_23h09.08.747,EmotionalValenceMemoryRecall,2024.1.5,None,2024-11-29 23h09.24.290055 +0530,
lion,,,,,,0,15,15,4,,,,,,,,,41.34620170015842,,,,,,,,,41.332256900146604,41.34620170015842,42.844998999964446,43.37943910015747,left,2.0224386998452246,None,,,,,,,,,,,,,,,,,,,,,,,,,,,,,,,,,,,02,001,2024-11-29_23h09.08.747,EmotionalValenceMemoryRecall,2024.1.5,None,2024-11-29 23h09.24.290055 +0530,
egg,,,,,,0,16,16,17,,,,,,,,,43.39461429975927,,,,,,,,,43.38038210012019,43.39461429975927,44.89316189987585,45.19629939971492,left,1.7987894997932017,None,,,,,,,,,,,,,,,,,,,,,,,,,,,,,,,,,,,02,001,2024-11-29_23h09.08.747,EmotionalValenceMemoryRecall,2024.1.5,None,2024-11-29 23h09.24.290055 +0530,
coin,,,,,,0,17,17,13,,,,,,,,,45.20939330011606,,,,,,,,,45.19744350016117,45.20939330011606,46.70778069971129,47.10912259994075,left,1.890637599863112,None,,,,,,,,,,,,,,,,,,,,,,,,,,,,,,,,,,,02,001,2024-11-29_23h09.08.747,EmotionalValenceMemoryRecall,2024.1.5,None,2024-11-29 23h09.24.290055 +0530,
jelly,,,,,,0,18,18,3,,,,,,,,,47.124134600162506,,,,,,,,,47.10996579984203,47.124134600162506,48.62321469979361,49.04138879990205,left,1.9082031999714673,None,,,,,,,,,,,,,,,,,,,,,,,,,,,,,,,,,,,02,001,2024-11-29_23h09.08.747,EmotionalValenceMemoryRecall,2024.1.5,None,2024-11-29 23h09.24.290055 +0530,
bowl,,,,,,0,19,19,6,,,,,,,,,49.055656699929386,,,,,,,,,49.04243669984862,49.055656699929386,50.55440319981426,50.90641420008615,left,1.84658889984712,None,,,,,,,,,,,,,,,,,,,,,,,,,,,,,,,,,,,02,001,2024-11-29_23h09.08.747,EmotionalValenceMemoryRecall,2024.1.5,None,2024-11-29 23h09.24.290055 +0530,
trunk,,,,,,0,20,20,0,,,,,,,,,50.920858199708164,,,,,,,,,50.90723320003599,50.920858199708164,52.41943260002881,52.9207858000882,left,1.9969127997756004,None,,,,,,,,,,,,,,,,,,,,,,,,,,,,,,,,,,,02,001,2024-11-29_23h09.08.747,EmotionalValenceMemoryRecall,2024.1.5,None,2024-11-29 23h09.24.290055 +0530,
paint,,,,,,0,21,21,24,,,,,,,,,52.93566800002009,,,,,,,,,52.9216347001493,52.93566800002009,54.43415219988674,54.98614039970562,left,2.0382065000012517,None,,,,,,,,,,,,,,,,,,,,,,,,,,,,,,,,,,,02,001,2024-11-29_23h09.08.747,EmotionalValenceMemoryRecall,2024.1.5,None,2024-11-29 23h09.24.290055 +0530,
basket,,,,,,0,22,22,1,,,,,,,,,55.000163699965924,,,,,,,,,54.98697490012273,55.000163699965924,56.49906709976494,57.28416060004383,left,2.280205999966711,None,,,,,,,,,,,,,,,,,,,,,,,,,,,,,,,,,,,02,001,2024-11-29_23h09.08.747,EmotionalValenceMemoryRecall,2024.1.5,None,2024-11-29 23h09.24.290055 +0530,
hay,,,,,,0,23,23,12,,,,,,,,,57.298067399766296,,,,,,,,,57.2849535997957,57.298067399766296,58.796303699724376,59.381540699861944,left,2.0665210001170635,None,,,,,,,,,,,,,,,,,,,,,,,,,,,,,,,,,,,02,001,2024-11-29_23h09.08.747,EmotionalValenceMemoryRecall,2024.1.5,None,2024-11-29 23h09.24.290055 +0530,
butter,,,,,,0,24,24,14,,,,,,,,,59.3959470000118,,,,,,,,,59.382378299720585,59.3959470000118,60.89460030011833,61.33024229994044,left,1.9207004001364112,None,,,,,,,,,,,,,,,,,,,,,,,,,,,,,,,,,,,02,001,2024-11-29_23h09.08.747,EmotionalValenceMemoryRecall,2024.1.5,None,2024-11-29 23h09.24.290055 +0530,
,23 - 29 =,,,,,,,,,0,0,0,7,,,,,61.38146229973063,,,,,,,,,,,,,,,,61.33971039997414,61.38146229973063,61.38146229973063,61.38146229973063,0.024810600094497204,65.81534169986844,5,[0.06759259259259259],[-0.30462962962962964],[1],[0],[0],[4.458287300076336],['InstText'],,,,,,,,,,,,,,,,,,,,,02,001,2024-11-29_23h09.08.747,EmotionalValenceMemoryRecall,2024.1.5,None,2024-11-29 23h09.24.290055 +0530,
,16 + 12 =,,,,,,,,,0,1,1,12,,,,,65.84885969990864,,,,,,,,,,,,,,,,65.81841239985079,65.84885969990864,65.84885969990864,65.84885969990864,0.013221200089901686,70.10629409970716,28,[0.04351851851851852],[-0.30462962962962964],[1],[0],[0],[4.273689499590546],['InstText'],,,,,,,,,,,,,,,,,,,,,02,001,2024-11-29_23h09.08.747,EmotionalValenceMemoryRecall,2024.1.5,None,2024-11-29 23h09.24.290055 +0530,
,47 + 50 =,,,,,,,,,0,2,2,14,,,,,70.13812959985808,,,,,,,,,,,,,,,,70.10775829991326,70.13812959985808,70.13812959985808,70.13812959985808,0.014232899993658066,72.9419975001365,97,[0.04351851851851852],[-0.30462962962962964],[1],[0],[0],[2.818851599935442],['InstText'],,,,,,,,,,,,,,,,,,,,,02,001,2024-11-29_23h09.08.747,EmotionalValenceMemoryRecall,2024.1.5,None,2024-11-29 23h09.24.290055 +0530,
,28 + 31 =,,,,,,,,,0,3,3,10,,,,,72.9708853000775,,,,,,,,,,,,,,,,72.94331240002066,72.9708853000775,72.9708853000775,72.9708853000775,0.009499399922788143,79.67892780015245,59,[0.04351851851851852],[-0.30462962962962964],[1],[0],[0],[6.725097800139338],['InstText'],,,,,,,,,,,,,,,,,,,,,02,001,2024-11-29_23h09.08.747,EmotionalValenceMemoryRecall,2024.1.5,None,2024-11-29 23h09.24.290055 +0530,
,10 + 15 =,,,,,,,,,0,4,4,0,,,,,79.70558770000935,,,,,,,,,,,,,,,,79.68039490003139,79.70558770000935,79.70558770000935,79.70558770000935,0.006606400012969971,81.97732200007886,25,[0.04351851851851852],[-0.30462962962962964],[1],[0],[0],[2.289515200071037],['InstText'],,,,,,,,,,,,,,,,,,,,,02,001,2024-11-29_23h09.08.747,EmotionalValenceMemoryRecall,2024.1.5,None,2024-11-29 23h09.24.290055 +0530,
,17 + 14 =,,,,,,,,,0,5,5,3,,,,,82.00270440010354,,,,,,,,,,,,,,,,81.97865130007267,82.00270440010354,82.00270440010354,82.00270440010354,0.005818699952214956,85.67732519982383,31,[0.04351851851851852],[-0.30462962962962964],[1],[0],[0],[3.692178300116211],['InstText'],,,,,,,,,,,,,,,,,,,,,02,001,2024-11-29_23h09.08.747,EmotionalValenceMemoryRecall,2024.1.5,None,2024-11-29 23h09.24.290055 +0530,
,69 - 12 =,,,,,,,,,0,6,6,1,,,,,85.70287630008534,,,,,,,,,,,,,,,,85.67931889975443,85.70287630008534,85.70287630008534,85.70287630008534,0.008589699864387512,89.88899549981579,57,[0.04351851851851852],[-0.30462962962962964],[1],[0],[0],[4.200496200006455],['InstText'],,,,,,,,,,,,,,,,,,,,,02,001,2024-11-29_23h09.08.747,EmotionalValenceMemoryRecall,2024.1.5,None,2024-11-29 23h09.24.290055 +0530,
,41 + 23 =,,,,,,,,,0,7,7,9,,,,,89.91340890014544,,,,,,,,,,,,,,,,89.8907739999704,89.91340890014544,89.91340890014544,89.91340890014544,0.0077241999097168446,93.28307269979268,64,[0.04351851851851852],[-0.30462962962962964],[1],[0],[0],[3.3835737998597324],['InstText'],,,,,,,,,,,,,,,,,,,,,02,001,2024-11-29_23h09.08.747,EmotionalValenceMemoryRecall,2024.1.5,None,2024-11-29 23h09.24.290055 +0530,
,32 - 21 =,,,,,,,,,0,8,8,4,,,,,93.30796210002154,,,,,,,,,,,,,,,,93.28463080013171,93.30796210002154,93.30796210002154,93.30796210002154,0.0068207997828722,96.4463928998448,11,[0.04351851851851852],[-0.30462962962962964],[1],[0],[0],[3.154609200078994],['InstText'],,,,,,,,,,,,,,,,,,,,,02,001,2024-11-29_23h09.08.747,EmotionalValenceMemoryRecall,2024.1.5,None,2024-11-29 23h09.24.290055 +0530,
,44 - 5 =,,,,,,,,,0,9,9,2,,,,,96.47195339994505,,,,,,,,,,,,,,,,96.44781389972195,96.47195339994505,96.47195339994505,96.47195339994505,0.006290100049227476,99.66037649987265,39,[0.04351851851851852],[-0.30462962962962964],[1],[0],[0],[3.205493999645114],['InstText'],,,,,,,,,,,,,,,,,,,,,02,001,2024-11-29_23h09.08.747,EmotionalValenceMemoryRecall,2024.1.5,None,2024-11-29 23h09.24.290055 +0530,
,32 - 45 =,,,,,,,,,0,10,10,6,,,,,99.68384009972215,,,,,,,,,,,,,,,,99.66204970004037,99.68384009972215,99.68384009972215,99.68384009972215,0.005941000301390886,106.98875330016017,-13,[0.04351851851851852],[-0.30462962962962964],[1],[0],[0],[7.319728800095618],['InstText'],,,,,,,,,,,,,,,,,,,,,02,001,2024-11-29_23h09.08.747,EmotionalValenceMemoryRecall,2024.1.5,None,2024-11-29 23h09.24.290055 +0530,
,29 + 10 =,,,,,,,,,0,11,11,8,,,,,107.01381250005215,,,,,,,,,,,,,,,,106.99005859997123,107.01381250005215,107.01381250005215,107.01381250005215,0.006890000309795141,111.26606589974836,39,[0.04351851851851852],[-0.30462962962962964],[1],[0],[0],[4.268256099894643],['InstText'],,,,,,,,,,,,,,,,,,,,,02,001,2024-11-29_23h09.08.747,EmotionalValenceMemoryRecall,2024.1.5,None,2024-11-29 23h09.24.290055 +0530,
,40 - 44 =,,,,,,,,,0,12,12,11,,,,,111.28854590002447,,,,,,,,,,,,,,,,111.26727439975366,111.28854590002447,111.28854590002447,111.28854590002447,0.0061063002794981,115.24620259972289,-4,[0.04351851851851852],[-0.30462962962962964],[1],[0],[0],[3.9719850001856685],['InstText'],,,,,,,,,,,,,,,,,,,,,02,001,2024-11-29_23h09.08.747,EmotionalValenceMemoryRecall,2024.1.5,None,2024-11-29 23h09.24.290055 +0530,
,25 + 28 =,,,,,,,,,0,13,13,5,,,,,115.27032320015132,,,,,,,,,,,,,,,,115.24745179992169,115.27032320015132,115.27032320015132,115.27032320015132,0.006047699600458145,119.72564460011199,53,[0.04351851851851852],[-0.30462962962962964],[1],[0],[0],[4.471340199932456],['InstText'],,,,,,,,,,,,,,,,,,,,,02,001,2024-11-29_23h09.08.747,EmotionalValenceMemoryRecall,2024.1.5,None,2024-11-29 23h09.24.290055 +0530,
,84 + 35 =,,,,,,,,,0,14,14,13,,,,,119.75112510006875,,,,,,,,,,,,,,,,119.72690470004454,119.75112510006875,119.75112510006875,119.75112510006875,0.0074986000545322895,126.58568250015378,119,[0.04351851851851852],[-0.30462962962962964],[1],[0],[0],[6.850439799949527],['InstText'],,,,,,,,,,,,,,,,,,,,,02,001,2024-11-29_23h09.08.747,EmotionalValenceMemoryRecall,2024.1.5,None,2024-11-29 23h09.24.290055 +0530,
,,,,,,,,,,,,,,,,,,,,,,,,,,,,,,,,,,,,,,,,,,,,,,,,126.5867226999253,126.60024219984189,126.60024219984189,129.14927229983732,space,2.5361124998889863,None,,,,,,,,,,,,,,02,001,2024-11-29_23h09.08.747,EmotionalValenceMemoryRecall,2024.1.5,None,2024-11-29 23h09.24.290055 +0530,
,,,,,,,,,,,,,,0,0,0,0,129.17198270000517,,,,,,,,,,,,,,,,,,,,,,,,,,,,,,,,,,,,,129.15117399999872,129.17198270000517,129.17198270000517,0.0029275002889335155,132.82880119979382, lion,[0.04351851851851852],[-0.30462962962962964],[1],[0],[0],[3.675803200341761],['Instr'],02,001,2024-11-29_23h09.08.747,EmotionalValenceMemoryRecall,2024.1.5,None,2024-11-29 23h09.24.290055 +0530,
,,,,,,,,,,,,,,1,0,1,0,132.84368439996615,,,,,,,,,,,,,,,,,,,,,,,,,,,,,,,,,,,,,132.82987059978768,132.84368439996615,132.84368439996615,0.0005307001993060112,134.5455004000105,hay,[0.04351851851851852],[-0.30462962962962964],[1],[0],[0],[1.714373600203544],['Instr'],02,001,2024-11-29_23h09.08.747,EmotionalValenceMemoryRecall,2024.1.5,None,2024-11-29 23h09.24.290055 +0530,
,,,,,,,,,,,,,,2,0,2,0,134.5619127000682,,,,,,,,,,,,,,,,,,,,,,,,,,,,,,,,,,,,,134.54755809996277,134.5619127000682,134.5619127000682,0.0013427003286778927,135.95902210008353,egg,[0.04351851851851852],[-0.30462962962962964],[1],[0],[0],[1.4098673001863062],['Instr'],02,001,2024-11-29_23h09.08.747,EmotionalValenceMemoryRecall,2024.1.5,None,2024-11-29 23h09.24.290055 +0530,
,,,,,,,,,,,,,,3,0,3,0,135.97422089986503,,,,,,,,,,,,,,,,,,,,,,,,,,,,,,,,,,,,,135.96015099994838,135.97422089986503,135.97422089986503,0.0008171997033059597,139.00746899982914,custom,[0.04351851851851852],[-0.30462962962962964],[1],[0],[0],[3.045599800068885],['Instr'],02,001,2024-11-29_23h09.08.747,EmotionalValenceMemoryRecall,2024.1.5,None,2024-11-29 23h09.24.290055 +0530,
,,,,,,,,,,,,,,4,0,4,0,139.02554860012606,,,,,,,,,,,,,,,,,,,,,,,,,,,,,,,,,,,,,139.01003609970212,139.02554860012606,139.02554860012606,0.0019089002162218094,142.0210114000365,salad,[0.04351851851851852],[-0.30462962962962964],[1],[0],[0],[3.008608900010586],['Instr'],02,001,2024-11-29_23h09.08.747,EmotionalValenceMemoryRecall,2024.1.5,None,2024-11-29 23h09.24.290055 +0530,
,,,,,,,,,,,,,,5,0,5,0,142.03988560009748,,,,,,,,,,,,,,,,,,,,,,,,,,,,,,,,,,,,,142.02301990007982,142.03988560009748,142.03988560009748,0.0014943997375667095,143.63732909969985,bowl,[0.04351851851851852],[-0.30462962962962964],[1],[0],[0],[1.6121979001909494],['Instr'],02,001,2024-11-29_23h09.08.747,EmotionalValenceMemoryRecall,2024.1.5,None,2024-11-29 23h09.24.290055 +0530,
,,,,,,,,,,,,,,6,0,6,0,143.65376819996163,,,,,,,,,,,,,,,,,,,,,,,,,,,,,,,,,,,,,143.63930639997125,143.65376819996163,143.65376819996163,0.0014134002849459648,146.51698309974745,paint,[0.04351851851851852],[-0.30462962962962964],[1],[0],[0],[2.8755172002129257],['Instr'],02,001,2024-11-29_23h09.08.747,EmotionalValenceMemoryRecall,2024.1.5,None,2024-11-29 23h09.24.290055 +0530,
,,,,,,,,,,,,,,7,0,7,0,146.5358782997355,,,,,,,,,,,,,,,,,,,,,,,,,,,,,,,,,,,,,146.51905909972265,146.5358782997355,146.5358782997355,0.0015946999192237854,148.5986596001312,basket,[0.04351851851851852],[-0.30462962962962964],[1],[0],[0],[2.077459200285375],['Instr'],02,001,2024-11-29_23h09.08.747,EmotionalValenceMemoryRecall,2024.1.5,None,2024-11-29 23h09.24.290055 +0530,
,,,,,,,,,,,,,,8,0,8,0,148.61561369989067,,,,,,,,,,,,,,,,,,,,,,,,,,,,,,,,,,,,,148.60067960014567,148.61561369989067,148.61561369989067,0.0015730001032352448,152.0286165997386,market,[0.04351851851851852],[-0.30462962962962964],[1],[0],[0],[3.4257891001179814],['Instr'],02,001,2024-11-29_23h09.08.747,EmotionalValenceMemoryRecall,2024.1.5,None,2024-11-29 23h09.24.290055 +0530,
,,,,,,,,,,,,,,9,0,9,0,152.0483711999841,,,,,,,,,,,,,,,,,,,,,,,,,,,,,,,,,,,,,152.03180419979617,152.0483711999841,152.0483711999841,0.0015866002067923546,153.893521099817,hat,[0.04351851851851852],[-0.30462962962962964],[1],[0],[0],[1.8594716000370681],['Instr'],02,001,2024-11-29_23h09.08.747,EmotionalValenceMemoryRecall,2024.1.5,None,2024-11-29 23h09.24.290055 +0530,
,,,,,,,,,,,,,,10,0,10,0,153.9112228001468,,,,,,,,,,,,,,,,,,,,,,,,,,,,,,,,,,,,,153.89545870013535,153.9112228001468,153.9112228001468,0.0016594999469816685,157.7728754999116,fabric,[0.04351851851851852],[-0.30462962962962964],[1],[0],[0],[3.8750022002495825],['Instr'],02,001,2024-11-29_23h09.08.747,EmotionalValenceMemoryRecall,2024.1.5,None,2024-11-29 23h09.24.290055 +0530,
,,,,,,,,,,,,,,11,0,11,0,157.7908131997101,,,,,,,,,,,,,,,,,,,,,,,,,,,,,,,,,,,,,157.7748603997752,157.7908131997101,157.7908131997101,0.0014007999561727047,159.87645530002192,butter,[0.04351851851851852],[-0.30462962962962964],[1],[0],[0],[2.0994627997279167],['Instr'],02,001,2024-11-29_23h09.08.747,EmotionalValenceMemoryRecall,2024.1.5,None,2024-11-29 23h09.24.290055 +0530,
,,,,,,,,,,,,,,12,0,12,0,159.89307209989056,,,,,,,,,,,,,,,,,,,,,,,,,,,,,,,,,,,,,159.87839700002223,159.89307209989056,159.89307209989056,0.001469200011342764,167.07923629973084,,[],[],[],[],[],[],[],02,001,2024-11-29_23h09.08.747,EmotionalValenceMemoryRecall,2024.1.5,None,2024-11-29 23h09.24.290055 +0530,
,,,,,,,,,,,,,,13,0,13,0,167.09590809978545,,,,,,,,,,,,,,,,,,,,,,,,,,,,,,,,,,,,,167.08120010001585,167.09590809978545,167.09590809978545,0.004226699937134981,174.2889113998972,,[],[],[],[],[],[],[],02,001,2024-11-29_23h09.08.747,EmotionalValenceMemoryRecall,2024.1.5,None,2024-11-29 23h09.24.290055 +0530,
,,,,,,,,,,,,,,14,0,14,0,174.30530240014195,,,,,,,,,,,,,,,,,,,,,,,,,,,,,,,,,,,,,174.29065239988267,174.30530240014195,174.30530240014195,0.013626499567180872,181.48246489977464,,[],[],[],[],[],[],[],02,001,2024-11-29_23h09.08.747,EmotionalValenceMemoryRecall,2024.1.5,None,2024-11-29 23h09.24.290055 +0530,
,,,,,,,,,,,,,,15,0,15,0,181.49900469975546,,,,,,,,,,,,,,,,,,,,,,,,,,,,,,,,,,,,,181.48437159974128,181.49900469975546,181.49900469975546,0.007352899294346571,188.6919412999414,,[],[],[],[],[],[],[],02,001,2024-11-29_23h09.08.747,EmotionalValenceMemoryRecall,2024.1.5,None,2024-11-29 23h09.24.290055 +0530,
,,,,,,,,,,,,,,16,0,16,0,188.70857119979337,,,,,,,,,,,,,,,,,,,,,,,,,,,,,,,,,,,,,188.69368760008365,188.70857119979337,188.70857119979337,0.016674399375915527,195.88508629985154,,[],[],[],[],[],[],[],02,001,2024-11-29_23h09.08.747,EmotionalValenceMemoryRecall,2024.1.5,None,2024-11-29 23h09.24.290055 +0530,
,,,,,,,,,,,,,,17,0,17,0,195.90182150015607,,,,,,,,,,,,,,,,,,,,,,,,,,,,,,,,,,,,,195.8868422000669,195.90182150015607,195.90182150015607,0.009495798964053392,203.07842550007626,,[],[],[],[],[],[],[],02,001,2024-11-29_23h09.08.747,EmotionalValenceMemoryRecall,2024.1.5,None,2024-11-29 23h09.24.290055 +0530,
,,,,,,,,,,,,,,18,0,18,0,203.09676379989833,,,,,,,,,,,,,,,,,,,,,,,,,,,,,,,,,,,,,203.0801987000741,203.09676379989833,203.09676379989833,0.0032119988463819027,210.2882928000763,,[],[],[],[],[],[],[],02,001,2024-11-29_23h09.08.747,EmotionalValenceMemoryRecall,2024.1.5,None,2024-11-29 23h09.24.290055 +0530,
,,,,,,,,,,,,,,,,,,210.30488609988242,,,,,,,,,,,,,,,,,,,,,,,,,,,,,,,,,,,,,210.289431899786,210.30488609988242,210.30488609988242,0.012063998728990555,,,,,,,,,,,,,,,,,
