neut_words,math,trials.thisRepN,trials.thisTrialN,trials.thisN,trials.thisIndex,trials_2.thisRepN,trials_2.thisTrialN,trials_2.thisN,trials_2.thisIndex,trials_3.thisRepN,trials_3.thisTrialN,trials_3.thisN,trials_3.thisIndex,trials_4.thisRepN,trials_4.thisTrialN,trials_4.thisN,trials_4.thisIndex,thisRow.t,notes,Intro.started,Introduction.started,key_resp.started,Intro.stopped,key_resp.keys,key_resp.rt,key_resp.duration,Words.started,key_resp_2.started,text.started,Words.stopped,key_resp_2.keys,key_resp_2.rt,key_resp_2.duration,text.stopped,DisTask.started,task.started,textbox.started,InstText.started,mouse.started,DisTask.stopped,textbox.text,mouse.x,mouse.y,mouse.leftButton,mouse.midButton,mouse.rightButton,mouse.time,mouse.clicked_name,Recall.started,RecallTask.started,key_resp_3.started,Recall.stopped,key_resp_3.keys,key_resp_3.rt,key_resp_3.duration,Test.started,TestAns.started,Instr.started,mouse_2.started,Test.stopped,TestAns.text,mouse_2.x,mouse_2.y,mouse_2.leftButton,mouse_2.midButton,mouse_2.rightButton,mouse_2.time,mouse_2.clicked_name,participant,session,date,expName,psychopyVersion,frameRate,expStart,
,,0,0,0,0,,,,,,,,,,,,,0.009930100000929087,,0.005272599999443628,0.009930100000929087,1.0061085999986972,12.289075699998648,space,11.260150199996133,None,,,,,,,,,,,,,,,,,,,,,,,,,,,,,,,,,,,,,,,,,,,03,001,2024-12-03_14h14.49.073,EmotionalValenceMemoryRecall,2024.1.5,None,2024-12-03 14h15.21.162352 +0530,
market,,,,,,0,0,0,18,,,,,,,,,12.3169640000051,,,,,,,,,12.302491499998723,12.3169640000051,13.794177600000694,14.945463900003233,left,2.621696800000791,None,,,,,,,,,,,,,,,,,,,,,,,,,,,,,,,,,,,,03,001,2024-12-03_14h14.49.073,EmotionalValenceMemoryRecall,2024.1.5,None,2024-12-03 14h15.21.162352 +0530,
jelly,,,,,,0,1,1,3,,,,,,,,,14.960400100004335,,,,,,,,,14.946664499999315,14.960400100004335,16.458279900005437,17.277087499998743,left,2.3145275999995647,None,,,,,,,,,,,,,,,,,,,,,,,,,,,,,,,,,,,,03,001,2024-12-03_14h14.49.073,EmotionalValenceMemoryRecall,2024.1.5,None,2024-12-03 14h15.21.162352 +0530,
rain,,,,,,0,2,2,23,,,,,,,,,17.290654800002812,,,,,,,,,17.27793930000189,17.290654800002812,18.78950270000496,19.806912200001534,right,2.5092339999973774,None,,,,,,,,,,,,,,,,,,,,,,,,,,,,,,,,,,,,03,001,2024-12-03_14h14.49.073,EmotionalValenceMemoryRecall,2024.1.5,None,2024-12-03 14h15.21.162352 +0530,
truck,,,,,,0,3,3,15,,,,,,,,,19.821686000002956,,,,,,,,,19.807693499999004,19.821686000002956,21.32040810000035,22.40410740000516,left,2.5672330999950645,None,,,,,,,,,,,,,,,,,,,,,,,,,,,,,,,,,,,,03,001,2024-12-03_14h14.49.073,EmotionalValenceMemoryRecall,2024.1.5,None,2024-12-03 14h15.21.162352 +0530,
nurse,,,,,,0,4,4,22,,,,,,,,,22.41947110000183,,,,,,,,,22.404986100002134,22.41947110000183,23.91794270000537,24.83707520000462,left,2.414815700001782,None,,,,,,,,,,,,,,,,,,,,,,,,,,,,,,,,,,,,03,001,2024-12-03_14h14.49.073,EmotionalValenceMemoryRecall,2024.1.5,None,2024-12-03 14h15.21.162352 +0530,
egg,,,,,,0,5,5,17,,,,,,,,,24.85014200000296,,,,,,,,,24.837910400005057,24.85014200000296,26.349118300000555,27.133897100000468,left,2.2784745000026305,None,,,,,,,,,,,,,,,,,,,,,,,,,,,,,,,,,,,,03,001,2024-12-03_14h14.49.073,EmotionalValenceMemoryRecall,2024.1.5,None,2024-12-03 14h15.21.162352 +0530,
coin,,,,,,0,6,6,13,,,,,,,,,27.14809830000013,,,,,,,,,27.134670200000983,27.14809830000013,28.646609100003843,33.3779641000001,left,6.222634500001732,None,31.660901200004446,,,,,,,,,,,,,,,,,,,,,,,,,,,,,,,,,,,03,001,2024-12-03_14h14.49.073,EmotionalValenceMemoryRecall,2024.1.5,None,2024-12-03 14h15.21.162352 +0530,
hay,,,,,,0,7,7,12,,,,,,,,,33.392182399999,,,,,,,,,33.378899100003764,33.392182399999,34.89083810000011,36.55810410000413,right,3.153198699998029,None,,,,,,,,,,,,,,,,,,,,,,,,,,,,,,,,,,,,03,001,2024-12-03_14h14.49.073,EmotionalValenceMemoryRecall,2024.1.5,None,2024-12-03 14h15.21.162352 +0530,
paper,,,,,,0,8,8,16,,,,,,,,,36.572665400002734,,,,,,,,,36.55898950000119,36.572665400002734,38.07132360000105,40.670969500002684,left,4.080928900002618,None,,,,,,,,,,,,,,,,,,,,,,,,,,,,,,,,,,,,03,001,2024-12-03_14h14.49.073,EmotionalValenceMemoryRecall,2024.1.5,None,2024-12-03 14h15.21.162352 +0530,
fabric,,,,,,0,9,9,2,,,,,,,,,40.68548870000086,,,,,,,,,40.671840100003465,40.68548870000086,42.18412979999994,43.43489850000333,left,2.740031400004227,None,,,,,,,,,,,,,,,,,,,,,,,,,,,,,,,,,,,,03,001,2024-12-03_14h14.49.073,EmotionalValenceMemoryRecall,2024.1.5,None,2024-12-03 14h15.21.162352 +0530,
lion,,,,,,0,10,10,4,,,,,,,,,43.449874300000374,,,,,,,,,43.43581760000234,43.449874300000374,44.9484231000024,47.4479852000004,left,3.984977699998126,None,,,,,,,,,,,,,,,,,,,,,,,,,,,,,,,,,,,,03,001,2024-12-03_14h14.49.073,EmotionalValenceMemoryRecall,2024.1.5,None,2024-12-03 14h15.21.162352 +0530,
custom,,,,,,0,11,11,8,,,,,,,,,47.46265050000511,,,,,,,,,47.448779500002274,47.46265050000511,48.9611545000007,50.927887400001055,right,3.448215700002038,None,,,,,,,,,,,,,,,,,,,,,,,,,,,,,,,,,,,,03,001,2024-12-03_14h14.49.073,EmotionalValenceMemoryRecall,2024.1.5,None,2024-12-03 14h15.21.162352 +0530,
butter,,,,,,0,12,12,14,,,,,,,,,50.94282810000004,,,,,,,,,50.92881060000218,50.94282810000004,52.44152269999904,53.44230070000049,left,2.4944276999958674,None,,,,,,,,,,,,,,,,,,,,,,,,,,,,,,,,,,,,03,001,2024-12-03_14h14.49.073,EmotionalValenceMemoryRecall,2024.1.5,None,2024-12-03 14h15.21.162352 +0530,
bowl,,,,,,0,13,13,6,,,,,,,,,53.45698860000266,,,,,,,,,53.44324210000195,53.45698860000266,54.95598730000347,55.75815400000283,left,2.2982728999995743,None,,,,,,,,,,,,,,,,,,,,,,,,,,,,,,,,,,,,03,001,2024-12-03_14h14.49.073,EmotionalValenceMemoryRecall,2024.1.5,None,2024-12-03 14h15.21.162352 +0530,
black,,,,,,0,14,14,7,,,,,,,,,55.77142090000416,,,,,,,,,55.75893100000394,55.77142090000416,57.26974500000506,58.08821549999993,left,2.3110090999980457,None,,,,,,,,,,,,,,,,,,,,,,,,,,,,,,,,,,,,03,001,2024-12-03_14h14.49.073,EmotionalValenceMemoryRecall,2024.1.5,None,2024-12-03 14h15.21.162352 +0530,
salad,,,,,,0,15,15,11,,,,,,,,,58.10247740000341,,,,,,,,,58.089059500001895,58.10247740000341,59.60127020000073,60.45273780000571,left,2.34387009999773,None,,,,,,,,,,,,,,,,,,,,,,,,,,,,,,,,,,,,03,001,2024-12-03_14h14.49.073,EmotionalValenceMemoryRecall,2024.1.5,None,2024-12-03 14h15.21.162352 +0530,
phase,,,,,,0,16,16,21,,,,,,,,,60.46696599999996,,,,,,,,,60.453590000004624,60.46696599999996,61.96528390000458,63.132968900004926,right,2.6512060000022757,None,,,,,,,,,,,,,,,,,,,,,,,,,,,,,,,,,,,,03,001,2024-12-03_14h14.49.073,EmotionalValenceMemoryRecall,2024.1.5,None,2024-12-03 14h15.21.162352 +0530,
paint,,,,,,0,17,17,24,,,,,,,,,63.14785980000306,,,,,,,,,63.13384909999877,63.14785980000306,64.64678040000581,65.96375850000186,left,2.8069862999982433,None,,,,,,,,,,,,,,,,,,,,,,,,,,,,,,,,,,,,03,001,2024-12-03_14h14.49.073,EmotionalValenceMemoryRecall,2024.1.5,None,2024-12-03 14h15.21.162352 +0530,
flag,,,,,,0,18,18,9,,,,,,,,,65.97845220000454,,,,,,,,,65.96453390000534,65.97845220000454,67.47751010000502,69.32754230000137,left,3.3451070000010077,None,,,,,,,,,,,,,,,,,,,,,,,,,,,,,,,,,,,,03,001,2024-12-03_14h14.49.073,EmotionalValenceMemoryRecall,2024.1.5,None,2024-12-03 14h15.21.162352 +0530,
hat,,,,,,0,19,19,20,,,,,,,,,69.34233210000093,,,,,,,,,69.32842920000257,69.34233210000093,70.84088590000465,71.65814120000141,left,2.3050923999981023,None,,,,,,,,,,,,,,,,,,,,,,,,,,,,,,,,,,,,03,001,2024-12-03_14h14.49.073,EmotionalValenceMemoryRecall,2024.1.5,None,2024-12-03 14h15.21.162352 +0530,
locker,,,,,,0,20,20,5,,,,,,,,,71.67313650000142,,,,,,,,,71.65899750000244,71.67313650000142,73.1720329000018,73.94002120000368,left,2.2629555000021355,None,,,,,,,,,,,,,,,,,,,,,,,,,,,,,,,,,,,,03,001,2024-12-03_14h14.49.073,EmotionalValenceMemoryRecall,2024.1.5,None,2024-12-03 14h15.21.162352 +0530,
finger,,,,,,0,21,21,10,,,,,,,,,73.95456510000076,,,,,,,,,73.94091119999939,73.95456510000076,75.45286019999912,76.63724500000535,left,2.674696900001436,None,,,,,,,,,,,,,,,,,,,,,,,,,,,,,,,,,,,,03,001,2024-12-03_14h14.49.073,EmotionalValenceMemoryRecall,2024.1.5,None,2024-12-03 14h15.21.162352 +0530,
tool,,,,,,0,22,22,19,,,,,,,,,76.65183580000303,,,,,,,,,76.63810360000207,76.65183580000303,78.1506176000039,78.73591030000534,left,2.0761000999991666,None,,,,,,,,,,,,,,,,,,,,,,,,,,,,,,,,,,,,03,001,2024-12-03_14h14.49.073,EmotionalValenceMemoryRecall,2024.1.5,None,2024-12-03 14h15.21.162352 +0530,
trunk,,,,,,0,23,23,0,,,,,,,,,78.74988350000058,,,,,,,,,78.73711030000413,78.74988350000058,80.2485655000055,80.98324200000206,left,2.2192360000044573,None,,,,,,,,,,,,,,,,,,,,,,,,,,,,,,,,,,,,03,001,2024-12-03_14h14.49.073,EmotionalValenceMemoryRecall,2024.1.5,None,2024-12-03 14h15.21.162352 +0530,
basket,,,,,,0,24,24,1,,,,,,,,,80.99792549999984,,,,,,,,,80.9840067000041,80.99792549999984,82.4962186000048,83.06502220000402,left,2.04954859999998,None,,,,,,,,,,,,,,,,,,,,,,,,,,,,,,,,,,,,03,001,2024-12-03_14h14.49.073,EmotionalValenceMemoryRecall,2024.1.5,None,2024-12-03 14h15.21.162352 +0530,
,25 + 28 =,,,,,,,,,0,0,0,5,,,,,83.11662200000137,,,,,,,,,,,,,,,,,83.0730068000048,83.11662200000137,83.11662200000137,83.11662200000137,0.030181399997672997,93.07016139999905,,[],[],[],[],[],[],[],,,,,,,,,,,,,,,,,,,,,03,001,2024-12-03_14h14.49.073,EmotionalValenceMemoryRecall,2024.1.5,None,2024-12-03 14h15.21.162352 +0530,
,69 - 12 =,,,,,,,,,0,1,1,1,,,,,93.09747760000027,,,,,,,,,,,,,,,,,93.07201830000122,93.09747760000027,93.09747760000027,93.09747760000027,0.022243499995965976,102.49642650000169,57,[0.03981481481481482],[-0.29259259259259257],[1],[0],[0],[9.407450200000312],['InstText'],,,,,,,,,,,,,,,,,,,,,03,001,2024-12-03_14h14.49.073,EmotionalValenceMemoryRecall,2024.1.5,None,2024-12-03 14h15.21.162352 +0530,
,10 + 15 =,,,,,,,,,0,2,2,0,,,,,102.52552220000507,,,,,,,,,,,,,,,,,102.49773200000345,102.52552220000507,102.52552220000507,102.52552220000507,0.011714899999788031,106.97547399999894,25,[0.04259259259259259],[-0.31296296296296294],[1],[0],[0],[4.4651320000048145],['InstText'],,,,,,,,,,,,,,,,,,,,,03,001,2024-12-03_14h14.49.073,EmotionalValenceMemoryRecall,2024.1.5,None,2024-12-03 14h15.21.162352 +0530,
,17 + 14 =,,,,,,,,,0,3,3,3,,,,,107.00972240000556,,,,,,,,,,,,,,,,,106.97696110000106,107.00972240000556,107.00972240000556,107.00972240000556,0.015538400002697017,112.1872039000009,31,[0.020370370370370372],[-0.2898148148148148],[1],[0],[0],[5.194020100003399],['InstText'],,,,,,,,,,,,,,,,,,,,,03,001,2024-12-03_14h14.49.073,EmotionalValenceMemoryRecall,2024.1.5,None,2024-12-03 14h15.21.162352 +0530,
,84 + 35 =,,,,,,,,,0,4,4,13,,,,,112.21022710000398,,,,,,,,,,,,,,,,,112.18848699999944,112.21022710000398,112.21022710000398,112.21022710000398,0.006136999996670056,122.19337420000375,129,[],[],[],[],[],[],[],,,,,,,,,,,,,,,,,,,,,03,001,2024-12-03_14h14.49.073,EmotionalValenceMemoryRecall,2024.1.5,None,2024-12-03 14h15.21.162352 +0530,
,23 - 29 =,,,,,,,,,0,5,5,7,,,,,122.2170316000047,,,,,,,,,,,,,,,,,122.1946093000006,122.2170316000047,122.2170316000047,122.2170316000047,0.012774099996022414,132.20092229999864,-6,[],[],[],[],[],[],[],,,,,,,,,,,,,,,,,,,,,03,001,2024-12-03_14h14.49.073,EmotionalValenceMemoryRecall,2024.1.5,None,2024-12-03 14h15.21.162352 +0530,
,28 + 31 =,,,,,,,,,0,6,6,10,,,,,132.22532960000535,,,,,,,,,,,,,,,,,132.20216400000209,132.22532960000535,132.22532960000535,132.22532960000535,0.020397599997522775,132.2450517000034,,[0.025],[-0.30277777777777776],[1],[0],[0],[0.03511360000265995],['InstText'],,,,,,,,,,,,,,,,,,,,,03,001,2024-12-03_14h14.49.073,EmotionalValenceMemoryRecall,2024.1.5,None,2024-12-03 14h15.21.162352 +0530,
,16 + 12 =,,,,,,,,,0,7,7,12,,,,,132.2674416000009,,,,,,,,,,,,,,,,,132.24633829999948,132.2674416000009,132.2674416000009,132.2674416000009,0.006316099999821745,137.8974018000008,28,[0.022222222222222223],[-0.3101851851851852],[1],[0],[0],[5.64377599999716],['InstText'],,,,,,,,,,,,,,,,,,,,,03,001,2024-12-03_14h14.49.073,EmotionalValenceMemoryRecall,2024.1.5,None,2024-12-03 14h15.21.162352 +0530,
,41 + 23 =,,,,,,,,,0,8,8,9,,,,,137.92153150000377,,,,,,,,,,,,,,,,,137.89866020000045,137.92153150000377,137.92153150000377,137.92153150000377,0.006645200002822094,144.12472949999938,64,[0.046296296296296294],[-0.30092592592592593],[1],[0],[0],[6.218606400005228],['InstText'],,,,,,,,,,,,,,,,,,,,,03,001,2024-12-03_14h14.49.073,EmotionalValenceMemoryRecall,2024.1.5,None,2024-12-03 14h15.21.162352 +0530,
,32 - 45 =,,,,,,,,,0,9,9,6,,,,,144.14921290000348,,,,,,,,,,,,,,,,,144.12610440000572,144.14921290000348,144.14921290000348,144.14921290000348,0.006573200000275392,153.34888460000366,-7,[0.046296296296296294],[-0.30092592592592593],[1],[0],[0],[9.215230900001188],['InstText'],,,,,,,,,,,,,,,,,,,,,03,001,2024-12-03_14h14.49.073,EmotionalValenceMemoryRecall,2024.1.5,None,2024-12-03 14h15.21.162352 +0530,
,47 + 50 =,,,,,,,,,0,10,10,14,,,,,153.3733532000042,,,,,,,,,,,,,,,,,153.35020559999975,153.3733532000042,153.3733532000042,153.3733532000042,0.00688580000132788,159.6095978000012,97,[0.027777777777777776],[-0.3],[1],[0],[0],[6.251533999995445],['InstText'],,,,,,,,,,,,,,,,,,,,,03,001,2024-12-03_14h14.49.073,EmotionalValenceMemoryRecall,2024.1.5,None,2024-12-03 14h15.21.162352 +0530,
,40 - 44 =,,,,,,,,,0,11,11,11,,,,,159.63284959999874,,,,,,,,,,,,,,,,,159.6108327000038,159.63284959999874,159.63284959999874,159.63284959999874,0.006208499995409511,163.70583679999982,-4,[0.027777777777777776],[-0.3],[1],[0],[0],[4.087916300006327],['InstText'],,,,,,,,,,,,,,,,,,,,,03,001,2024-12-03_14h14.49.073,EmotionalValenceMemoryRecall,2024.1.5,None,2024-12-03 14h15.21.162352 +0530,
,44 - 5 =,,,,,,,,,0,12,12,2,,,,,163.7313718000005,,,,,,,,,,,,,,,,,163.70718200000556,163.7313718000005,163.7313718000005,163.7313718000005,0.005609699997876305,171.14879610000207,39,[0.03796296296296296],[-0.30185185185185187],[1],[0],[0],[7.4351625999988755],['InstText'],,,,,,,,,,,,,,,,,,,,,03,001,2024-12-03_14h14.49.073,EmotionalValenceMemoryRecall,2024.1.5,None,2024-12-03 14h15.21.162352 +0530,
,29 + 10 =,,,,,,,,,0,13,13,8,,,,,171.17324370000279,,,,,,,,,,,,,,,,,171.15012489999935,171.17324370000279,171.17324370000279,171.17324370000279,0.006615700003749225,176.37759490000462,39,[0.03796296296296296],[-0.30185185185185187],[1],[0],[0],[5.219784200002323],['InstText'],,,,,,,,,,,,,,,,,,,,,03,001,2024-12-03_14h14.49.073,EmotionalValenceMemoryRecall,2024.1.5,None,2024-12-03 14h15.21.162352 +0530,
,32 - 21 =,,,,,,,,,0,14,14,4,,,,,176.40232950000063,,,,,,,,,,,,,,,,,176.3790949000031,176.40232950000063,176.40232950000063,176.40232950000063,0.006693800001812633,184.38677720000123,11,[0.062037037037037036],[-0.30185185185185187],[1],[0],[0],[8.000128700005007],['InstText'],,,,,,,,,,,,,,,,,,,,,03,001,2024-12-03_14h14.49.073,EmotionalValenceMemoryRecall,2024.1.5,None,2024-12-03 14h15.21.162352 +0530,
,,,,,,,,,,,,,,,,,,,,,,,,,,,,,,,,,,,,,,,,,,,,,,,,,184.38777000000118,184.4013363000049,184.4013363000049,197.27493170000525,space,12.858724799996708,None,,,,,,,,,,,,,,03,001,2024-12-03_14h14.49.073,EmotionalValenceMemoryRecall,2024.1.5,None,2024-12-03 14h15.21.162352 +0530,
,,,,,,,,,,,,,,0,0,0,0,197.29224850000173,,,,,,,,,,,,,,,,,,,,,,,,,,,,,,,,,,,,,,197.27668670000276,197.29224850000173,197.29224850000173,0.00282100000185892,204.48299760000373, lion,[],[],[],[],[],[],[],03,001,2024-12-03_14h14.49.073,EmotionalValenceMemoryRecall,2024.1.5,None,2024-12-03 14h15.21.162352 +0530,
,,,,,,,,,,,,,,1,0,1,0,204.5037164000023,,,,,,,,,,,,,,,,,,,,,,,,,,,,,,,,,,,,,,204.48647060000076,204.5037164000023,204.5037164000023,0.012649500007682946,211.67589330000192,black,[],[],[],[],[],[],[],03,001,2024-12-03_14h14.49.073,EmotionalValenceMemoryRecall,2024.1.5,None,2024-12-03 14h15.21.162352 +0530,
,,,,,,,,,,,,,,2,0,2,0,211.69206130000384,,,,,,,,,,,,,,,,,,,,,,,,,,,,,,,,,,,,,,211.67709630000172,211.69206130000384,211.69206130000384,0.002705300008528866,218.87089910000213,flag,[0.075],[-0.30277777777777776],[1],[0],[0],[7.192172800001572],['Instr'],03,001,2024-12-03_14h14.49.073,EmotionalValenceMemoryRecall,2024.1.5,None,2024-12-03 14h15.21.162352 +0530,
,,,,,,,,,,,,,,3,0,3,0,218.8879531000057,,,,,,,,,,,,,,,,,,,,,,,,,,,,,,,,,,,,,,218.87292980000348,218.8879531000057,218.8879531000057,0.0014675999991595745,226.0789289000022,,[],[],[],[],[],[],[],03,001,2024-12-03_14h14.49.073,EmotionalValenceMemoryRecall,2024.1.5,None,2024-12-03 14h15.21.162352 +0530,
,,,,,,,,,,,,,,4,0,4,0,226.0965825000021,,,,,,,,,,,,,,,,,,,,,,,,,,,,,,,,,,,,,,226.08068050000293,226.0965825000021,226.0965825000021,0.009225399997376371,233.28901820000465,,[],[],[],[],[],[],[],03,001,2024-12-03_14h14.49.073,EmotionalValenceMemoryRecall,2024.1.5,None,2024-12-03 14h15.21.162352 +0530,
,,,,,,,,,,,,,,5,0,5,0,233.30546750000212,,,,,,,,,,,,,,,,,,,,,,,,,,,,,,,,,,,,,,233.29033139999956,233.30546750000212,233.30546750000212,0.018524099999922328,240.13451540000096,butter,[0.075],[-0.30277777777777776],[1],[0],[0],[6.842304700003297],['Instr'],03,001,2024-12-03_14h14.49.073,EmotionalValenceMemoryRecall,2024.1.5,None,2024-12-03 14h15.21.162352 +0530,
,,,,,,,,,,,,,,6,0,6,0,240.15294740000536,,,,,,,,,,,,,,,,,,,,,,,,,,,,,,,,,,,,,,240.13649879999866,240.15294740000536,240.15294740000536,0.001415900005667936,247.34247519999917,,[],[],[],[],[],[],[],03,001,2024-12-03_14h14.49.073,EmotionalValenceMemoryRecall,2024.1.5,None,2024-12-03 14h15.21.162352 +0530,
,,,,,,,,,,,,,,7,0,7,0,247.3600699000017,,,,,,,,,,,,,,,,,,,,,,,,,,,,,,,,,,,,,,247.3447526000018,247.3600699000017,247.3600699000017,0.00985380000929581,254.55211480000435,,[],[],[],[],[],[],[],03,001,2024-12-03_14h14.49.073,EmotionalValenceMemoryRecall,2024.1.5,None,2024-12-03 14h15.21.162352 +0530,
,,,,,,,,,,,,,,8,0,8,0,254.56888869999966,,,,,,,,,,,,,,,,,,,,,,,,,,,,,,,,,,,,,,254.55405620000238,254.56888869999966,254.56888869999966,0.019000400010554586,261.7457685000045,,[],[],[],[],[],[],[],03,001,2024-12-03_14h14.49.073,EmotionalValenceMemoryRecall,2024.1.5,None,2024-12-03 14h15.21.162352 +0530,
,,,,,,,,,,,,,,9,0,9,0,261.76215429999866,,,,,,,,,,,,,,,,,,,,,,,,,,,,,,,,,,,,,,261.7476014000058,261.76215429999866,261.76215429999866,0.012498400014010258,268.93896099999984,,[],[],[],[],[],[],[],03,001,2024-12-03_14h14.49.073,EmotionalValenceMemoryRecall,2024.1.5,None,2024-12-03 14h15.21.162352 +0530,
,,,,,,,,,,,,,,,,,,268.9564202000038,,,,,,,,,,,,,,,,,,,,,,,,,,,,,,,,,,,,,,268.94121019999875,268.9564202000038,268.9564202000038,0.006131900016043801,,,,,,,,,,,,,,,,,
