reward_today,future_reward,delay,trials.thisRepN,trials.thisTrialN,trials.thisN,trials.thisIndex,thisRow.t,notes,trial.started,Fixation.started,text.started,key_resp.started,Fixation.stopped,trial.stopped,key_resp.keys,key_resp.rt,key_resp.duration,participant,session,date,expName,psychopyVersion,frameRate,expStart,
49,60,89,0,0,0,4,0.09740899968892336,,0.010419899597764015,0.09740899968892336,1.0057851998135448,1.0057851998135448,1.106219899840653,143.89522759988904,t,142.86832769960165,None,03,001,2024-11-12_10h25.33.677,DelayDiscountingTask,2024.1.5,None,2024-11-12 10h26.36.780744 +0530,
15,35,13,0,1,1,1,143.91308949980885,,143.8963750996627,143.91308949980885,144.90491299983114,144.90491299983114,144.920650199987,146.03997879987583,l,1.1315077003091574,None,03,001,2024-11-12_10h25.33.677,DelayDiscountingTask,2024.1.5,None,2024-11-12 10h26.36.780744 +0530,
67,75,119,0,2,2,5,146.06111099990085,,146.04112780001014,146.06111099990085,147.05244359979406,147.05244359979406,147.06912449980155,147.75447029992938,t,0.6990034999325871,None,03,001,2024-11-12_10h25.33.677,DelayDiscountingTask,2024.1.5,None,2024-11-12 10h26.36.780744 +0530,
11,30,7,0,3,3,0,147.77077239984646,,147.75560189969838,147.77077239984646,148.76798269990832,148.76798269990832,148.7839383999817,149.66929899994284,l,0.8830463998019695,None,03,001,2024-11-12_10h25.33.677,DelayDiscountingTask,2024.1.5,None,2024-11-12 10h26.36.780744 +0530,
40,55,62,0,4,4,3,149.68596879998222,,149.67038369970396,149.68596879998222,150.68204770004377,150.68204770004377,150.69939559977502,151.5840181997046,t,0.893703700043261,None,03,001,2024-11-12_10h25.33.677,DelayDiscountingTask,2024.1.5,None,2024-11-12 10h26.36.780744 +0530,
27,50,21,0,5,5,2,151.5989269996062,,151.58507179981098,151.5989269996062,152.5976871997118,152.5976871997118,152.61348439985886,153.76708889985457,t,1.1588979000225663,None,03,001,2024-11-12_10h25.33.677,DelayDiscountingTask,2024.1.5,None,2024-11-12 10h26.36.780744 +0530,
78,80,162,0,6,6,6,153.78211179981008,,153.7682652999647,153.78211179981008,154.77760249981657,154.77760249981657,154.79521889984608,155.64718429977074,t,0.8527307002805173,None,03,001,2024-11-12_10h25.33.677,DelayDiscountingTask,2024.1.5,None,2024-11-12 10h26.36.780744 +0530,
11,30,7,1,0,7,0,155.66149469977245,,155.6482877000235,155.66149469977245,156.66078419983387,156.66078419983387,156.67624840000644,157.67778939986601,l,1.0079622999764979,None,03,001,2024-11-12_10h25.33.677,DelayDiscountingTask,2024.1.5,None,2024-11-12 10h26.36.780744 +0530,
67,75,119,1,1,8,5,157.693348699715,,157.6788563998416,157.693348699715,158.6916387998499,158.6916387998499,158.7078501000069,159.65940209990367,t,0.9581315997056663,None,03,001,2024-11-12_10h25.33.677,DelayDiscountingTask,2024.1.5,None,2024-11-12 10h26.36.780744 +0530,
78,80,162,1,2,9,6,159.6748476997018,,159.6604430996813,159.6748476997018,160.67425619997084,160.67425619997084,160.68987839994952,161.5579307996668,t,0.8681484996341169,None,03,001,2024-11-12_10h25.33.677,DelayDiscountingTask,2024.1.5,None,2024-11-12 10h26.36.780744 +0530,
15,35,13,1,3,10,1,161.57349810004234,,161.55896559963003,161.57349810004234,162.57071230001748,162.57071230001748,162.58827099995688,163.70535949990153,t,1.121132199652493,None,03,001,2024-11-12_10h25.33.677,DelayDiscountingTask,2024.1.5,None,2024-11-12 10h26.36.780744 +0530,
40,55,62,1,4,11,3,163.72230909997597,,163.70643089991063,163.72230909997597,164.71828609984368,164.71828609984368,164.73376629967242,165.93657959997654,t,1.2133917999453843,None,03,001,2024-11-12_10h25.33.677,DelayDiscountingTask,2024.1.5,None,2024-11-12 10h26.36.780744 +0530,
27,50,21,1,5,12,2,165.95265789981931,,165.93772639986128,165.95265789981931,166.9422430000268,166.9422430000268,166.95166649995372,170.416324199643,l,3.4699973999522626,None,03,001,2024-11-12_10h25.33.677,DelayDiscountingTask,2024.1.5,None,2024-11-12 10h26.36.780744 +0530,
49,60,89,1,6,13,4,170.4320097998716,,170.41733959969133,170.4320097998716,171.42969150003046,171.42969150003046,171.44709849962965,172.396828699857,t,0.9528731000609696,None,03,001,2024-11-12_10h25.33.677,DelayDiscountingTask,2024.1.5,None,2024-11-12 10h26.36.780744 +0530,
27,50,21,2,0,14,2,172.41378389997408,,172.3978482997045,172.41378389997408,173.412308299914,173.412308299914,173.4275872996077,174.61246049962938,l,1.1960736000910401,None,03,001,2024-11-12_10h25.33.677,DelayDiscountingTask,2024.1.5,None,2024-11-12 10h26.36.780744 +0530,
49,60,89,2,1,15,4,174.6284730997868,,174.6134484000504,174.6284730997868,175.6255049998872,175.6255049998872,175.64299759967253,176.1778762997128,t,0.5416943002492189,None,03,001,2024-11-12_10h25.33.677,DelayDiscountingTask,2024.1.5,None,2024-11-12 10h26.36.780744 +0530,
11,30,7,2,2,16,0,176.19234029995278,,176.17888739984483,176.19234029995278,177.19048239989206,177.19048239989206,177.19048239989206,178.00925139989704,l,0.807515500113368,None,03,001,2024-11-12_10h25.33.677,DelayDiscountingTask,2024.1.5,None,2024-11-12 10h26.36.780744 +0530,
78,80,162,2,3,17,6,178.02391440002248,,178.010420399718,178.02391440002248,179.0223025996238,179.0223025996238,179.0223025996238,180.14088519988582,t,1.109481300227344,None,03,001,2024-11-12_10h25.33.677,DelayDiscountingTask,2024.1.5,None,2024-11-12 10h26.36.780744 +0530,
40,55,62,2,4,18,3,180.15526639996096,,180.14193039992824,180.15526639996096,181.1533428998664,181.1533428998664,181.17137699993327,182.47186969965696,t,1.309273200109601,None,03,001,2024-11-12_10h25.33.677,DelayDiscountingTask,2024.1.5,None,2024-11-12 10h26.36.780744 +0530,
67,75,119,2,5,19,5,182.48652100004256,,182.47284539975226,182.48652100004256,183.48483729967847,183.48483729967847,183.48483729967847,184.4702559998259,t,0.9782243999652565,None,03,001,2024-11-12_10h25.33.677,DelayDiscountingTask,2024.1.5,None,2024-11-12 10h26.36.780744 +0530,
15,35,13,2,6,20,1,184.48446289962158,,184.4712339998223,184.48446289962158,185.48278780002147,185.48278780002147,185.48278780002147,186.50128829991445,l,1.004049599636346,None,03,001,2024-11-12_10h25.33.677,DelayDiscountingTask,2024.1.5,None,2024-11-12 10h26.36.780744 +0530,
49,60,89,3,0,21,4,186.51609189994633,,186.50232419976965,186.51609189994633,187.51410769997165,187.51410769997165,187.53241429990157,188.3333218996413,t,0.8033983996137977,None,03,001,2024-11-12_10h25.33.677,DelayDiscountingTask,2024.1.5,None,2024-11-12 10h26.36.780744 +0530,
67,75,119,3,1,22,5,188.3484180998057,,188.33444229979068,188.3484180998057,189.34616139996797,189.34616139996797,189.36310279974714,190.44681569980457,t,1.0883279000408947,None,03,001,2024-11-12_10h25.33.677,DelayDiscountingTask,2024.1.5,None,2024-11-12 10h26.36.780744 +0530,
15,35,13,3,2,23,1,190.46304069971666,,190.44790629995987,190.46304069971666,191.46164969960228,191.46164969960228,191.47744399961084,192.07882779976353,l,0.6131337000988424,None,03,001,2024-11-12_10h25.33.677,DelayDiscountingTask,2024.1.5,None,2024-11-12 10h26.36.780744 +0530,
11,30,7,3,3,24,0,192.09467280004174,,192.07991209998727,192.09467280004174,193.09308549994603,193.09308549994603,193.109569999855,193.87730049993843,l,0.7789704999886453,None,03,001,2024-11-12_10h25.33.677,DelayDiscountingTask,2024.1.5,None,2024-11-12 10h26.36.780744 +0530,
78,80,162,3,4,25,6,193.89264949969947,,193.8784854998812,193.89264949969947,194.8910432998091,194.8910432998091,194.90663230000064,195.559676699806,t,0.6528257001191378,None,03,001,2024-11-12_10h25.33.677,DelayDiscountingTask,2024.1.5,None,2024-11-12 10h26.36.780744 +0530,
40,55,62,3,5,26,3,195.57528560003266,,195.5607590000145,195.57528560003266,196.57249779999256,196.57249779999256,196.5901044998318,197.35845289984718,t,0.7759839999489486,None,03,001,2024-11-12_10h25.33.677,DelayDiscountingTask,2024.1.5,None,2024-11-12 10h26.36.780744 +0530,
27,50,21,3,6,27,2,197.37305059982464,,197.35953059978783,197.37305059982464,198.37060999963433,198.37060999963433,198.37060999963433,199.2228191997856,l,0.8418629001826048,None,03,001,2024-11-12_10h25.33.677,DelayDiscountingTask,2024.1.5,None,2024-11-12 10h26.36.780744 +0530,
67,75,119,4,0,28,5,199.2373414998874,,199.22387159988284,199.2373414998874,200.23561579966918,200.23561579966918,200.23561579966918,201.00378330005333,t,0.7526350002735853,None,03,001,2024-11-12_10h25.33.677,DelayDiscountingTask,2024.1.5,None,2024-11-12 10h26.36.780744 +0530,
49,60,89,4,1,29,4,201.020266499836,,201.0049030999653,201.020266499836,202.01853889971972,202.01853889971972,202.03459229972214,202.836930999998,t,0.8153762998990715,None,03,001,2024-11-12_10h25.33.677,DelayDiscountingTask,2024.1.5,None,2024-11-12 10h26.36.780744 +0530,
78,80,162,4,2,30,6,202.85096929967403,,202.83802759973332,202.85096929967403,203.84823659993708,203.84823659993708,203.8638450000435,204.7637380999513,t,0.9074606001377106,None,03,001,2024-11-12_10h25.33.677,DelayDiscountingTask,2024.1.5,None,2024-11-12 10h26.36.780744 +0530,
27,50,21,4,3,31,2,204.77996939979494,,204.7641705996357,204.77996939979494,205.76381929963827,205.76381929963827,205.7817388996482,207.59827409964055,l,1.8268371000885963,None,03,001,2024-11-12_10h25.33.677,DelayDiscountingTask,2024.1.5,None,2024-11-12 10h26.36.780744 +0530,
15,35,13,4,4,32,1,207.61328639974818,,207.59936290001497,207.61328639974818,208.61218549963087,208.61218549963087,208.62796099996194,211.36097220005468,l,2.74089129967615,None,03,001,2024-11-12_10h25.33.677,DelayDiscountingTask,2024.1.5,None,2024-11-12 10h26.36.780744 +0530,
40,55,62,4,5,33,3,211.3765199999325,,211.36211289977655,211.3765199999325,212.37567289965227,212.37567289965227,212.39145229989663,212.95973909972236,t,0.5779156000353396,None,03,001,2024-11-12_10h25.33.677,DelayDiscountingTask,2024.1.5,None,2024-11-12 10h26.36.780744 +0530,
11,30,7,4,6,34,0,212.97511059977114,,212.96089289989322,212.97511059977114,213.97117249993607,213.97117249993607,213.98813009960577,214.62142469966784,l,0.6449819002300501,None,03,001,2024-11-12_10h25.33.677,DelayDiscountingTask,2024.1.5,None,2024-11-12 10h26.36.780744 +0530,
49,60,89,5,0,35,4,214.63766799960285,,214.62183309998363,214.63766799960285,215.63736559962854,215.63736559962854,215.65266270004213,216.4698051000014,t,0.8166923997923732,None,03,001,2024-11-12_10h25.33.677,DelayDiscountingTask,2024.1.5,None,2024-11-12 10h26.36.780744 +0530,
15,35,13,5,1,36,1,216.48476479994133,,216.4704131996259,216.48476479994133,217.48570859991014,217.48570859991014,217.48570859991014,218.38421599986032,l,0.8891449002549052,None,03,001,2024-11-12_10h25.33.677,DelayDiscountingTask,2024.1.5,None,2024-11-12 10h26.36.780744 +0530,
27,50,21,5,2,37,2,218.40120869968086,,218.3847093996592,218.40120869968086,219.38471109978855,219.38471109978855,219.40250770002604,220.70272069983184,l,1.3066167999058962,None,03,001,2024-11-12_10h25.33.677,DelayDiscountingTask,2024.1.5,None,2024-11-12 10h26.36.780744 +0530,
11,30,7,5,3,38,0,220.71763610001653,,220.70374879986048,220.71763610001653,221.7159273000434,221.7159273000434,221.73280789982527,222.35064459964633,l,0.6313961003907025,None,03,001,2024-11-12_10h25.33.677,DelayDiscountingTask,2024.1.5,None,2024-11-12 10h26.36.780744 +0530,
78,80,162,5,4,39,6,222.36864649970084,,222.3517040000297,222.36864649970084,223.36479659983888,223.36479659983888,223.38099699979648,224.00007259985432,t,0.6280705998651683,None,03,001,2024-11-12_10h25.33.677,DelayDiscountingTask,2024.1.5,None,2024-11-12 10h26.36.780744 +0530,
67,75,119,5,5,40,5,224.01463019987568,,224.0010958998464,224.01463019987568,225.0129447998479,225.0129447998479,225.0303722997196,226.0807061996311,t,1.0652223997749388,None,03,001,2024-11-12_10h25.33.677,DelayDiscountingTask,2024.1.5,None,2024-11-12 10h26.36.780744 +0530,
40,55,62,5,6,41,3,226.09569909982383,,226.08172209979966,226.09569909982383,227.0924865999259,227.0924865999259,227.10902989981696,227.96203849976882,t,0.8573479996994138,None,03,001,2024-11-12_10h25.33.677,DelayDiscountingTask,2024.1.5,None,2024-11-12 10h26.36.780744 +0530,
15,35,13,6,0,42,1,227.97661029966548,,227.96307999966666,227.97661029966548,228.97560509992763,228.97560509992763,228.97560509992763,229.67671709973365,l,0.6856267997063696,None,03,001,2024-11-12_10h25.33.677,DelayDiscountingTask,2024.1.5,None,2024-11-12 10h26.36.780744 +0530,
67,75,119,6,1,43,5,229.69315179996192,,229.67780719976872,229.69315179996192,230.6915996996686,230.6915996996686,230.707002799958,231.4603658998385,t,0.7626943001523614,None,03,001,2024-11-12_10h25.33.677,DelayDiscountingTask,2024.1.5,None,2024-11-12 10h26.36.780744 +0530,
78,80,162,6,2,44,6,231.476630799938,,231.46147129964083,231.476630799938,232.47270189970732,232.47270189970732,232.49010449973866,233.14100659964606,t,0.6645885999314487,None,03,001,2024-11-12_10h25.33.677,DelayDiscountingTask,2024.1.5,None,2024-11-12 10h26.36.780744 +0530,
40,55,62,6,3,45,3,233.15644910000265,,233.1420264998451,233.15644910000265,234.1543519999832,234.1543519999832,234.1709520998411,234.738426099997,t,0.5756355002522469,None,03,001,2024-11-12_10h25.33.677,DelayDiscountingTask,2024.1.5,None,2024-11-12 10h26.36.780744 +0530,
11,30,7,6,4,46,0,234.75456220004708,,234.73946690000594,234.75456220004708,235.75294329971075,235.75294329971075,235.76890749996528,236.48831229982898,l,0.7278682999312878,None,03,001,2024-11-12_10h25.33.677,DelayDiscountingTask,2024.1.5,None,2024-11-12 10h26.36.780744 +0530,
27,50,21,6,5,47,2,236.5029770997353,,236.48938139993697,236.5029770997353,237.50088860001415,237.50088860001415,237.51855179993436,238.58610600000247,l,1.072879500221461,None,03,001,2024-11-12_10h25.33.677,DelayDiscountingTask,2024.1.5,None,2024-11-12 10h26.36.780744 +0530,
49,60,89,6,6,48,4,238.60201679961756,,238.5871847998351,238.60201679961756,239.5998581997119,239.5998581997119,239.6167604997754,241.0506023997441,t,1.432296599727124,None,03,001,2024-11-12_10h25.33.677,DelayDiscountingTask,2024.1.5,None,2024-11-12 10h26.36.780744 +0530,
40,55,62,7,0,49,3,241.06545819994062,,241.05164449987933,241.06545819994062,242.06363489991054,242.06363489991054,242.08077379968017,242.99663219973445,t,0.9238353995606303,None,03,001,2024-11-12_10h25.33.677,DelayDiscountingTask,2024.1.5,None,2024-11-12 10h26.36.780744 +0530,
27,50,21,7,1,50,2,243.0116449999623,,242.99738119961694,243.0116449999623,244.01223849970847,244.01223849970847,244.01223849970847,244.7134576998651,l,0.687786600086838,None,03,001,2024-11-12_10h25.33.677,DelayDiscountingTask,2024.1.5,None,2024-11-12 10h26.36.780744 +0530,
49,60,89,7,2,51,4,244.72830379987136,,244.71451779967174,244.72830379987136,245.7270356998779,245.7270356998779,245.7270356998779,246.46182009996846,t,0.7193183996714652,None,03,001,2024-11-12_10h25.33.677,DelayDiscountingTask,2024.1.5,None,2024-11-12 10h26.36.780744 +0530,
15,35,13,7,3,52,1,246.47816559998319,,246.46287549985573,246.47816559998319,247.47577679995447,247.47577679995447,247.49175289971754,248.14369329996407,l,0.6544394996017218,None,03,001,2024-11-12_10h25.33.677,DelayDiscountingTask,2024.1.5,None,2024-11-12 10h26.36.780744 +0530,
11,30,7,7,4,53,0,248.1606608000584,,248.14507569978014,248.1606608000584,249.15565630001947,249.15565630001947,249.17285620002076,249.72492539975792,l,0.5526319001801312,None,03,001,2024-11-12_10h25.33.677,DelayDiscountingTask,2024.1.5,None,2024-11-12 10h26.36.780744 +0530,
78,80,162,7,5,54,6,249.7404221999459,,249.72589479992166,249.7404221999459,250.73935989988968,250.73935989988968,250.7552344999276,251.3567637000233,t,0.6008158000186086,None,03,001,2024-11-12_10h25.33.677,DelayDiscountingTask,2024.1.5,None,2024-11-12 10h26.36.780744 +0530,
67,75,119,7,6,55,5,251.3721505999565,,251.35780669981614,251.3721505999565,252.37112409994006,252.37112409994006,252.38739949977025,253.55457909964025,t,1.172379500232637,None,03,001,2024-11-12_10h25.33.677,DelayDiscountingTask,2024.1.5,None,2024-11-12 10h26.36.780744 +0530,
15,35,13,8,0,56,1,253.57033889973536,,253.55564739974216,253.57033889973536,254.56791429966688,254.56791429966688,254.5849105999805,255.30620129965246,l,0.7329933997243643,None,03,001,2024-11-12_10h25.33.677,DelayDiscountingTask,2024.1.5,None,2024-11-12 10h26.36.780744 +0530,
40,55,62,8,1,57,3,255.3228491996415,,255.30763389961794,255.3228491996415,256.317055599764,256.317055599764,256.33430759981275,257.1501597999595,t,0.8251319001428783,None,03,001,2024-11-12_10h25.33.677,DelayDiscountingTask,2024.1.5,None,2024-11-12 10h26.36.780744 +0530,
67,75,119,8,2,58,5,257.1670816000551,,257.15124919964,257.1670816000551,258.1662411997095,258.1662411997095,258.1819111998193,258.8826723997481,t,0.7020026999525726,None,03,001,2024-11-12_10h25.33.677,DelayDiscountingTask,2024.1.5,None,2024-11-12 10h26.36.780744 +0530,
11,30,7,8,3,59,0,258.89922619983554,,258.8836806998588,258.89922619983554,259.89766629971564,259.89766629971564,259.9135525999591,260.46643659984693,l,0.5517092999070883,None,03,001,2024-11-12_10h25.33.677,DelayDiscountingTask,2024.1.5,None,2024-11-12 10h26.36.780744 +0530,
49,60,89,8,4,60,4,260.480661300011,,260.46744199981913,260.480661300011,261.47931959992275,261.47931959992275,261.49658619984984,262.1470920997672,t,0.6597082000225782,None,03,001,2024-11-12_10h25.33.677,DelayDiscountingTask,2024.1.5,None,2024-11-12 10h26.36.780744 +0530,
78,80,162,8,5,61,6,262.1636018999852,,262.14810659969226,262.1636018999852,263.1612325999886,263.1612325999886,263.1770437997766,263.92859190003946,t,0.7579628000967205,None,03,001,2024-11-12_10h25.33.677,DelayDiscountingTask,2024.1.5,None,2024-11-12 10h26.36.780744 +0530,
27,50,21,8,6,62,2,263.9438771000132,,263.92970289988443,263.9438771000132,264.9418937000446,264.9418937000446,264.9418937000446,265.8609854998067,l,0.9103701999410987,None,03,001,2024-11-12_10h25.33.677,DelayDiscountingTask,2024.1.5,None,2024-11-12 10h26.36.780744 +0530,
11,30,7,9,0,63,0,265.8767631999217,,265.8620561999269,265.8767631999217,266.873506099917,266.873506099917,266.8910387000069,267.69256450003013,l,0.8149861004203558,None,03,001,2024-11-12_10h25.33.677,DelayDiscountingTask,2024.1.5,None,2024-11-12 10h26.36.780744 +0530,
49,60,89,9,1,64,4,267.7080251998268,,267.69361499976367,267.7080251998268,268.70483029959723,268.70483029959723,268.7223995998502,270.09151499997824,t,1.3774756002239883,None,03,001,2024-11-12_10h25.33.677,DelayDiscountingTask,2024.1.5,None,2024-11-12 10h26.36.780744 +0530,
78,80,162,9,2,65,6,270.1067734998651,,270.0925297997892,270.1067734998651,271.10238519962877,271.10238519962877,271.1195128997788,272.5037153000012,t,1.3949405997991562,None,03,001,2024-11-12_10h25.33.677,DelayDiscountingTask,2024.1.5,None,2024-11-12 10h26.36.780744 +0530,
67,75,119,9,3,66,5,272.5194040997885,,272.50476569961756,272.5194040997885,273.5183588997461,273.5183588997461,273.53476049983874,274.1206998997368,t,0.5870563997887075,None,03,001,2024-11-12_10h25.33.677,DelayDiscountingTask,2024.1.5,None,2024-11-12 10h26.36.780744 +0530,
40,55,62,9,4,67,3,274.13673749985173,,274.1216874998063,274.13673749985173,275.1316954996437,275.1316954996437,275.1502246996388,275.90022409986705,t,0.7566777002066374,None,03,001,2024-11-12_10h25.33.677,DelayDiscountingTask,2024.1.5,None,2024-11-12 10h26.36.780744 +0530,
15,35,13,9,5,68,1,275.9161791000515,,275.9012688999064,275.9161791000515,276.9147311998531,276.9147311998531,276.9309800998308,277.5475518000312,l,0.6231861999258399,None,03,001,2024-11-12_10h25.33.677,DelayDiscountingTask,2024.1.5,None,2024-11-12 10h26.36.780744 +0530,
27,50,21,9,6,69,2,277.5621078000404,,277.54822789970785,277.5621078000404,278.5626318999566,278.5626318999566,278.5626318999566,279.081692900043,t,0.5155537002719939,None,03,001,2024-11-12_10h25.33.677,DelayDiscountingTask,2024.1.5,None,2024-11-12 10h26.36.780744 +0530,
15,35,13,10,0,70,1,279.09819159982726,,279.0826616999693,279.09819159982726,280.0944991996512,280.0944991996512,280.1120516997762,280.9467315999791,t,0.8434525998309255,None,03,001,2024-11-12_10h25.33.677,DelayDiscountingTask,2024.1.5,None,2024-11-12 10h26.36.780744 +0530,
49,60,89,10,1,71,4,280.9624204998836,,280.94771069986746,280.9624204998836,281.9594635996036,281.9594635996036,281.9765520999208,284.177429900039,t,2.210104000288993,None,03,001,2024-11-12_10h25.33.677,DelayDiscountingTask,2024.1.5,None,2024-11-12 10h26.36.780744 +0530,
78,80,162,10,2,72,6,284.1943822996691,,284.17847439972684,284.1943822996691,285.18955849995837,285.18955849995837,285.20766209997237,285.8240226996131,t,0.6239112000912428,None,03,001,2024-11-12_10h25.33.677,DelayDiscountingTask,2024.1.5,None,2024-11-12 10h26.36.780744 +0530,
67,75,119,10,3,73,5,285.84016099991277,,285.8250683997758,285.84016099991277,286.83911129971966,286.83911129971966,286.8548391996883,289.5213407999836,t,2.6757088000886142,None,03,001,2024-11-12_10h25.33.677,DelayDiscountingTask,2024.1.5,None,2024-11-12 10h26.36.780744 +0530,
40,55,62,10,4,74,3,289.536420899909,,289.5223209997639,289.536420899909,290.53558729961514,290.53558729961514,290.5513644996099,291.252404499799,t,0.710228499956429,None,03,001,2024-11-12_10h25.33.677,DelayDiscountingTask,2024.1.5,None,2024-11-12 10h26.36.780744 +0530,
11,30,7,10,5,75,0,291.26832340005785,,291.25346299959347,291.26832340005785,292.2669699997641,292.2669699997641,292.28298979997635,292.9690844998695,l,0.69173329975456,None,03,001,2024-11-12_10h25.33.677,DelayDiscountingTask,2024.1.5,None,2024-11-12 10h26.36.780744 +0530,
27,50,21,10,6,76,2,292.9837922998704,,292.9700966998935,292.9837922998704,293.9814590997994,293.9814590997994,293.9814590997994,294.916700899601,l,0.9284912003204226,None,03,001,2024-11-12_10h25.33.677,DelayDiscountingTask,2024.1.5,None,2024-11-12 10h26.36.780744 +0530,
40,55,62,11,0,77,3,294.93257499998435,,294.9177490998991,294.93257499998435,295.9307300997898,295.9307300997898,295.9465922997333,297.16494889976457,t,1.2155057000927627,None,03,001,2024-11-12_10h25.33.677,DelayDiscountingTask,2024.1.5,None,2024-11-12 10h26.36.780744 +0530,
15,35,13,11,1,78,1,297.17967609968036,,297.1659627999179,297.17967609968036,298.1773756998591,298.1773756998591,298.1773756998591,298.87941289972514,l,0.6894430001266301,None,03,001,2024-11-12_10h25.33.677,DelayDiscountingTask,2024.1.5,None,2024-11-12 10h26.36.780744 +0530,
27,50,21,11,2,79,2,298.89490129984915,,298.88038189988583,298.89490129984915,299.89424289995804,299.89424289995804,299.90943560004234,301.1774728996679,l,1.274439699947834,None,03,001,2024-11-12_10h25.33.677,DelayDiscountingTask,2024.1.5,None,2024-11-12 10h26.36.780744 +0530,
49,60,89,11,3,80,4,301.1938891997561,,301.17848759982735,301.1938891997561,302.1915001999587,302.1915001999587,302.20760829979554,302.74245429970324,t,0.5365145998075604,None,03,001,2024-11-12_10h25.33.677,DelayDiscountingTask,2024.1.5,None,2024-11-12 10h26.36.780744 +0530,
78,80,162,11,4,81,6,302.75953619973734,,302.7435035998933,302.75953619973734,303.7564799999818,303.7564799999818,303.77253949968144,304.3907665000297,t,0.6205080999061465,None,03,001,2024-11-12_10h25.33.677,DelayDiscountingTask,2024.1.5,None,2024-11-12 10h26.36.780744 +0530,
11,30,7,11,5,82,0,304.40722029982135,,304.3918128996156,304.40722029982135,305.40539349988103,305.40539349988103,305.4212428997271,306.1393296997994,l,0.7300637001171708,None,03,001,2024-11-12_10h25.33.677,DelayDiscountingTask,2024.1.5,None,2024-11-12 10h26.36.780744 +0530,
67,75,119,11,6,83,5,306.1547042997554,,306.1402966999449,306.1547042997554,307.1533897998743,307.1533897998743,307.16927960002795,307.6713351998478,t,0.5062976004555821,None,03,001,2024-11-12_10h25.33.677,DelayDiscountingTask,2024.1.5,None,2024-11-12 10h26.36.780744 +0530,
49,60,89,12,0,84,4,307.68640899984166,,307.6724549997598,307.68640899984166,308.68494539987296,308.68494539987296,308.70076239993796,309.45293749962,t,0.7593290996737778,None,03,001,2024-11-12_10h25.33.677,DelayDiscountingTask,2024.1.5,None,2024-11-12 10h26.36.780744 +0530,
78,80,162,12,1,85,6,309.4703829996288,,309.45397009979934,309.4703829996288,310.4665858997032,310.4665858997032,310.48400329984725,311.084530999884,t,0.6057126997038722,None,03,001,2024-11-12_10h25.33.677,DelayDiscountingTask,2024.1.5,None,2024-11-12 10h26.36.780744 +0530,
27,50,21,12,2,86,2,311.09863559994847,,311.0855713998899,311.09863559994847,312.097830099985,312.097830099985,312.097830099985,312.8851339998655,l,0.7841734997928143,None,03,001,2024-11-12_10h25.33.677,DelayDiscountingTask,2024.1.5,None,2024-11-12 10h26.36.780744 +0530,
15,35,13,12,3,87,1,312.89917129976675,,312.8862097999081,312.89917129976675,313.8966216999106,313.8966216999106,313.91449069976807,316.0961597999558,l,2.182947900146246,None,03,001,2024-11-12_10h25.33.677,DelayDiscountingTask,2024.1.5,None,2024-11-12 10h26.36.780744 +0530,
11,30,7,12,4,88,0,316.11229599965736,,316.0971889998764,316.11229599965736,317.1104158000089,317.1104158000089,317.1267203995958,318.39391889981925,l,1.2767929998226464,None,03,001,2024-11-12_10h25.33.677,DelayDiscountingTask,2024.1.5,None,2024-11-12 10h26.36.780744 +0530,
40,55,62,12,5,89,3,318.41008810000494,,318.39490729989484,318.41008810000494,319.4083734997548,319.4083734997548,319.4246703996323,320.17678890004754,t,0.7559261000715196,None,03,001,2024-11-12_10h25.33.677,DelayDiscountingTask,2024.1.5,None,2024-11-12 10h26.36.780744 +0530,
67,75,119,12,6,90,5,320.1914216997102,,320.1777931000106,320.1914216997102,321.1893018996343,321.1893018996343,321.2069486998953,322.2080999999307,t,1.0089231999590993,None,03,001,2024-11-12_10h25.33.677,DelayDiscountingTask,2024.1.5,None,2024-11-12 10h26.36.780744 +0530,
27,50,21,13,0,91,2,322.22387239988893,,322.2091099997051,322.22387239988893,323.2225456996821,323.2225456996821,323.23974270001054,324.30575279984623,l,1.07201540004462,None,03,001,2024-11-12_10h25.33.677,DelayDiscountingTask,2024.1.5,None,2024-11-12 10h26.36.780744 +0530,
15,35,13,13,1,92,1,324.32088249968365,,324.3068970995955,324.32088249968365,325.3189276997,325.3189276997,325.33656679978594,326.1713759996928,l,0.8489816002547741,None,03,001,2024-11-12_10h25.33.677,DelayDiscountingTask,2024.1.5,None,2024-11-12 10h26.36.780744 +0530,
67,75,119,13,2,93,5,326.1870501996018,,326.1723568998277,326.1870501996018,327.183904199861,327.183904199861,327.20173459965736,327.8522834996693,t,0.6570099000819027,None,03,001,2024-11-12_10h25.33.677,DelayDiscountingTask,2024.1.5,None,2024-11-12 10h26.36.780744 +0530,
11,30,7,13,3,94,0,327.8688207999803,,327.8534678998403,327.8688207999803,328.86576960003003,328.86576960003003,328.88239319995046,329.584968699608,l,0.7161514000035822,None,03,001,2024-11-12_10h25.33.677,DelayDiscountingTask,2024.1.5,None,2024-11-12 10h26.36.780744 +0530,
78,80,162,13,4,95,6,329.60063479980454,,329.5862201000564,329.60063479980454,330.59787940001115,330.59787940001115,330.613969899714,331.4326844997704,t,0.8274064003489912,None,03,001,2024-11-12_10h25.33.677,DelayDiscountingTask,2024.1.5,None,2024-11-12 10h26.36.780744 +0530,
40,55,62,13,5,96,3,331.4475895999931,,331.433661499992,331.4475895999931,332.44591639982536,332.44591639982536,332.4632582999766,333.11427929997444,t,0.6650490998290479,None,03,001,2024-11-12_10h25.33.677,DelayDiscountingTask,2024.1.5,None,2024-11-12 10h26.36.780744 +0530,
49,60,89,13,6,97,4,333.1293530999683,,333.11534029990435,333.1293530999683,334.12823439994827,334.12823439994827,334.1439584000036,334.7460282999091,t,0.6117326002568007,None,03,001,2024-11-12_10h25.33.677,DelayDiscountingTask,2024.1.5,None,2024-11-12 10h26.36.780744 +0530,
67,75,119,14,0,98,5,334.7623018999584,,334.7470685997978,334.7623018999584,335.7601357996464,335.7601357996464,335.7760325996205,336.27709049964324,t,0.5030700000934303,None,03,001,2024-11-12_10h25.33.677,DelayDiscountingTask,2024.1.5,None,2024-11-12 10h26.36.780744 +0530,
27,50,21,14,1,99,2,336.29477499984205,,336.27825819980353,336.29477499984205,337.29168329993263,337.29168329993263,337.3077080999501,338.0419921996072,l,0.7386770001612604,None,03,001,2024-11-12_10h25.33.677,DelayDiscountingTask,2024.1.5,None,2024-11-12 10h26.36.780744 +0530,
40,55,62,14,2,100,3,338.0580707998015,,338.0430338997394,338.0580707998015,339.05544409994036,339.05544409994036,339.07210280001163,339.8882003999315,t,0.8303017998114228,None,03,001,2024-11-12_10h25.33.677,DelayDiscountingTask,2024.1.5,None,2024-11-12 10h26.36.780744 +0530,
11,30,7,14,3,101,0,339.9029188998975,,339.88884829962626,339.9029188998975,340.9026083997451,340.9026083997451,340.9026083997451,341.9899819996208,l,1.0803891001269221,None,03,001,2024-11-12_10h25.33.677,DelayDiscountingTask,2024.1.5,None,2024-11-12 10h26.36.780744 +0530,
15,35,13,14,4,102,1,342.0056770998053,,341.9911051997915,342.0056770998053,343.0013775997795,343.0013775997795,343.01722629973665,343.8377302000299,l,0.8307532002218068,None,03,001,2024-11-12_10h25.33.677,DelayDiscountingTask,2024.1.5,None,2024-11-12 10h26.36.780744 +0530,
78,80,162,14,5,103,6,343.8552200999111,,343.8388729998842,343.8552200999111,344.85112260002643,344.85112260002643,344.86746899969876,345.6362934997305,t,0.7710669999942183,None,03,001,2024-11-12_10h25.33.677,DelayDiscountingTask,2024.1.5,None,2024-11-12 10h26.36.780744 +0530,
49,60,89,14,6,104,4,345.6510161999613,,345.6373139000498,345.6510161999613,346.6499017998576,346.6499017998576,346.66575929988176,347.48463999992236,t,0.8163745999336243,None,03,001,2024-11-12_10h25.33.677,DelayDiscountingTask,2024.1.5,None,2024-11-12 10h26.36.780744 +0530,
