reward_today,future_reward,delay,trials.thisRepN,trials.thisTrialN,trials.thisN,trials.thisIndex,thisRow.t,notes,trial.started,Fixation.started,text.started,key_resp.started,Fixation.stopped,trial.stopped,key_resp.keys,key_resp.rt,key_resp.duration,participant,session,date,expName,psychopyVersion,frameRate,expStart,
27,50,21,0,0,0,2,0.07992650009691715,,0.011762500274926424,0.07992650009691715,1.0078243999741971,1.0078243999741971,1.092044800054282,2.4000099999830127,l,1.3679192997515202,None,04,001,2024-11-12_10h33.57.098,DelayDiscountingTask,2024.1.5,None,2024-11-12 10h41.18.039018 +0530,
78,80,162,0,1,1,6,2.411972400266677,,2.402158100157976,2.411972400266677,3.406199200078845,3.406199200078845,3.423513799905777,4.223489699885249,t,0.8031790000386536,None,04,001,2024-11-12_10h33.57.098,DelayDiscountingTask,2024.1.5,None,2024-11-12 10h41.18.039018 +0530,
49,60,89,0,2,2,4,4.238537100143731,,4.224043200258166,4.238537100143731,5.237465600017458,5.237465600017458,5.237465600017458,6.388719100039452,t,1.141387699637562,None,04,001,2024-11-12_10h33.57.098,DelayDiscountingTask,2024.1.5,None,2024-11-12 10h41.18.039018 +0530,
67,75,119,0,3,3,5,6.403028800152242,,6.389202199876308,6.403028800152242,7.4018063000403345,7.4018063000403345,7.4018063000403345,8.73547329986468,t,1.3194649000652134,None,04,001,2024-11-12_10h33.57.098,DelayDiscountingTask,2024.1.5,None,2024-11-12 10h41.18.039018 +0530,
15,35,13,0,4,4,1,8.751069699879736,,8.736084800213575,8.751069699879736,9.75301990006119,9.75301990006119,9.766531399916857,11.200426999945194,l,1.4344142000190914,None,04,001,2024-11-12_10h33.57.098,DelayDiscountingTask,2024.1.5,None,2024-11-12 10h41.18.039018 +0530,
11,30,7,0,5,5,0,11.216486600227654,,11.20114709995687,11.216486600227654,12.215203099884093,12.215203099884093,12.23171309987083,13.997185099869967,l,1.7736276001669466,None,04,001,2024-11-12_10h33.57.098,DelayDiscountingTask,2024.1.5,None,2024-11-12 10h41.18.039018 +0530,
40,55,62,0,6,6,3,14.013004899956286,,13.99766490003094,14.013004899956286,15.011902700178325,15.011902700178325,15.028158400207758,16.097266899887472,t,1.083465099800378,None,04,001,2024-11-12_10h33.57.098,DelayDiscountingTask,2024.1.5,None,2024-11-12 10h41.18.039018 +0530,
40,55,62,1,0,7,3,16.11159860016778,,16.097951699979603,16.11159860016778,17.11040770029649,17.11040770029649,17.12623819988221,17.810682999901474,t,0.6936151999980211,None,04,001,2024-11-12_10h33.57.098,DelayDiscountingTask,2024.1.5,None,2024-11-12 10h41.18.039018 +0530,
67,75,119,1,1,8,5,17.82543689990416,,17.811329300049692,17.82543689990416,18.82459959993139,18.82459959993139,18.82459959993139,19.825249399989843,t,0.9956030999310315,None,04,001,2024-11-12_10h33.57.098,DelayDiscountingTask,2024.1.5,None,2024-11-12 10h41.18.039018 +0530,
78,80,162,1,2,9,6,19.840921100229025,,19.825829000212252,19.840921100229025,20.840226100292057,20.840226100292057,20.840226100292057,21.474475500173867,t,0.6275649997405708,None,04,001,2024-11-12_10h33.57.098,DelayDiscountingTask,2024.1.5,None,2024-11-12 10h41.18.039018 +0530,
49,60,89,1,3,10,4,21.48885180009529,,21.474997600074857,21.48885180009529,22.488415800035,22.488415800035,22.488415800035,23.123314400203526,t,0.6271091001108289,None,04,001,2024-11-12_10h33.57.098,DelayDiscountingTask,2024.1.5,None,2024-11-12 10h41.18.039018 +0530,
15,35,13,1,4,11,1,23.138084600213915,,23.12397240009159,23.138084600213915,24.13701010029763,24.13701010029763,24.15294220019132,24.87106870021671,l,0.7205848000012338,None,04,001,2024-11-12_10h33.57.098,DelayDiscountingTask,2024.1.5,None,2024-11-12 10h41.18.039018 +0530,
27,50,21,1,5,12,2,24.885538400150836,,24.87155900010839,24.885538400150836,25.884761600289494,25.884761600289494,25.884761600289494,27.101817999966443,l,1.2050536000169814,None,04,001,2024-11-12_10h33.57.098,DelayDiscountingTask,2024.1.5,None,2024-11-12 10h41.18.039018 +0530,
11,30,7,1,6,13,0,27.116976600140333,,27.10231180023402,27.116976600140333,28.11614629998803,28.11614629998803,28.11614629998803,29.033742799889296,l,0.910408599767834,None,04,001,2024-11-12_10h33.57.098,DelayDiscountingTask,2024.1.5,None,2024-11-12 10h41.18.039018 +0530,
40,55,62,2,0,14,3,29.048641700297594,,29.03422400029376,29.048641700297594,30.048184200190008,30.048184200190008,30.048184200190008,30.915670699905604,t,0.8654749998822808,None,04,001,2024-11-12_10h33.57.098,DelayDiscountingTask,2024.1.5,None,2024-11-12 10h41.18.039018 +0530,
78,80,162,2,1,15,6,30.930915900040418,,30.916374099906534,30.930915900040418,31.929539000149816,31.929539000149816,31.946121000219136,32.67983550019562,t,0.7472291002050042,None,04,001,2024-11-12_10h33.57.098,DelayDiscountingTask,2024.1.5,None,2024-11-12 10h41.18.039018 +0530,
11,30,7,2,2,16,0,32.69533650018275,,32.68030579993501,32.69533650018275,33.695180899929255,33.695180899929255,33.71067090006545,34.39522839989513,l,0.6888784999027848,None,04,001,2024-11-12_10h33.57.098,DelayDiscountingTask,2024.1.5,None,2024-11-12 10h41.18.039018 +0530,
67,75,119,2,3,17,5,34.41008900012821,,34.39572639996186,34.41008900012821,35.40944440010935,35.40944440010935,35.40944440010935,36.34326949995011,t,0.9233179003931582,None,04,001,2024-11-12_10h33.57.098,DelayDiscountingTask,2024.1.5,None,2024-11-12 10h41.18.039018 +0530,
49,60,89,2,4,18,4,36.358669800218195,,36.343735800124705,36.358669800218195,37.35887200012803,37.35887200012803,37.35887200012803,43.520134900230914,t,6.150411000009626,None,04,001,2024-11-12_10h33.57.098,DelayDiscountingTask,2024.1.5,None,2024-11-12 10h41.18.039018 +0530,
27,50,21,2,5,19,2,43.535170200280845,,43.520566599909216,43.535170200280845,44.53402099991217,44.53402099991217,44.53402099991217,45.26763360016048,l,0.725814700126648,None,04,001,2024-11-12_10h33.57.098,DelayDiscountingTask,2024.1.5,None,2024-11-12 10h41.18.039018 +0530,
15,35,13,2,6,20,1,45.28358029993251,,45.26817260030657,45.28358029993251,46.28364340029657,46.28364340029657,46.28364340029657,47.39926639990881,l,1.099355099722743,None,04,001,2024-11-12_10h33.57.098,DelayDiscountingTask,2024.1.5,None,2024-11-12 10h41.18.039018 +0530,
49,60,89,3,0,21,4,47.415173300076276,,47.39983269991353,47.415173300076276,48.41447569988668,48.41447569988668,48.43048690026626,49.53327029990032,t,1.103441399987787,None,04,001,2024-11-12_10h33.57.098,DelayDiscountingTask,2024.1.5,None,2024-11-12 10h41.18.039018 +0530,
27,50,21,3,1,22,2,49.54950740002096,,49.53430420020595,49.54950740002096,50.54507800005376,50.54507800005376,50.561548199970275,52.06148030003533,l,1.507632799912244,None,04,001,2024-11-12_10h33.57.098,DelayDiscountingTask,2024.1.5,None,2024-11-12 10h41.18.039018 +0530,
11,30,7,3,2,23,0,52.077772200107574,,52.06198689993471,52.077772200107574,53.07653889991343,53.07653889991343,53.09274969995022,55.19256590027362,l,2.114241300150752,None,04,001,2024-11-12_10h33.57.098,DelayDiscountingTask,2024.1.5,None,2024-11-12 10h41.18.039018 +0530,
78,80,162,3,3,24,6,55.20782510004938,,55.19309289986268,55.20782510004938,56.20776750007644,56.20776750007644,56.20776750007644,57.85571110015735,t,1.6450763996690512,None,04,001,2024-11-12_10h33.57.098,DelayDiscountingTask,2024.1.5,None,2024-11-12 10h41.18.039018 +0530,
40,55,62,3,4,25,3,57.87138909986243,,57.85611280007288,57.87138909986243,58.85439079999924,58.85439079999924,58.872082700021565,60.38726040022448,t,1.5242444998584688,None,04,001,2024-11-12_10h33.57.098,DelayDiscountingTask,2024.1.5,None,2024-11-12 10h41.18.039018 +0530,
67,75,119,3,5,26,5,60.40283829998225,,60.38778669992462,60.40283829998225,61.4022002001293,61.4022002001293,61.4022002001293,62.45170750003308,t,1.0384689001366496,None,04,001,2024-11-12_10h33.57.098,DelayDiscountingTask,2024.1.5,None,2024-11-12 10h41.18.039018 +0530,
15,35,13,3,6,27,1,62.4679721002467,,62.452284700237215,62.4679721002467,63.467050299979746,63.467050299979746,63.482897200156,64.56940810009837,l,1.0922520002350211,None,04,001,2024-11-12_10h33.57.098,DelayDiscountingTask,2024.1.5,None,2024-11-12 10h41.18.039018 +0530,
27,50,21,4,0,28,2,64.58153179986402,,64.56983709987253,64.58153179986402,65.58104790002108,65.58104790002108,65.58104790002108,66.33244460029528,l,0.7453311001881957,None,04,001,2024-11-12_10h33.57.098,DelayDiscountingTask,2024.1.5,None,2024-11-12 10h41.18.039018 +0530,
49,60,89,4,1,29,4,66.34691850002855,,66.3329390999861,66.34691850002855,67.34615890029818,67.34615890029818,67.34615890029818,68.19708329997957,t,0.8363018999807537,None,04,001,2024-11-12_10h33.57.098,DelayDiscountingTask,2024.1.5,None,2024-11-12 10h41.18.039018 +0530,
78,80,162,4,2,30,6,68.21177110029384,,68.19761419994757,68.21177110029384,69.21104010008276,69.21104010008276,69.21104010008276,70.69437299994752,t,1.4781587002798915,None,04,001,2024-11-12_10h33.57.098,DelayDiscountingTask,2024.1.5,None,2024-11-12 10h41.18.039018 +0530,
11,30,7,4,3,31,0,70.70935510005802,,70.69489399995655,70.70935510005802,71.70868830010295,71.70868830010295,71.70868830010295,72.40998600004241,l,0.6852580001577735,None,04,001,2024-11-12_10h33.57.098,DelayDiscountingTask,2024.1.5,None,2024-11-12 10h41.18.039018 +0530,
40,55,62,4,4,32,3,72.42555959988385,,72.41062760027125,72.42555959988385,73.42476169997826,73.42476169997826,73.44127569999546,74.30639109993353,t,0.8722728998400271,None,04,001,2024-11-12_10h33.57.098,DelayDiscountingTask,2024.1.5,None,2024-11-12 10h41.18.039018 +0530,
15,35,13,4,5,33,1,74.3225449998863,,74.30680610006675,74.3225449998863,75.32234210008755,75.32234210008755,75.33809489989653,76.53871160000563,l,1.2128796000033617,None,04,001,2024-11-12_10h33.57.098,DelayDiscountingTask,2024.1.5,None,2024-11-12 10h41.18.039018 +0530,
67,75,119,4,6,34,5,76.55451859999448,,76.53923510015011,76.55451859999448,77.55398559989408,77.55398559989408,77.55398559989408,78.32102760020643,t,0.7612479999661446,None,04,001,2024-11-12_10h33.57.098,DelayDiscountingTask,2024.1.5,None,2024-11-12 10h41.18.039018 +0530,
49,60,89,5,0,35,4,78.335706199985,,78.32150339987129,78.335706199985,79.33473009988666,79.33473009988666,79.33473009988666,79.96886959997937,t,0.6249045999720693,None,04,001,2024-11-12_10h33.57.098,DelayDiscountingTask,2024.1.5,None,2024-11-12 10h41.18.039018 +0530,
40,55,62,5,1,36,3,79.98462609993294,,79.96939280023798,79.98462609993294,80.96838909992948,80.96838909992948,80.98601459991187,81.68522730004042,t,0.7075784998014569,None,04,001,2024-11-12_10h33.57.098,DelayDiscountingTask,2024.1.5,None,2024-11-12 10h41.18.039018 +0530,
67,75,119,5,2,37,5,81.69970689993352,,81.68591669993475,81.69970689993352,82.69893469987437,82.69893469987437,82.69893469987437,83.43362110015005,t,0.7317122002132237,None,04,001,2024-11-12_10h33.57.098,DelayDiscountingTask,2024.1.5,None,2024-11-12 10h41.18.039018 +0530,
15,35,13,5,3,38,1,83.44889870006591,,83.43430719990283,83.44889870006591,84.44765389990062,84.44765389990062,84.46340750018135,84.93093649996445,t,0.4683936000801623,None,04,001,2024-11-12_10h33.57.098,DelayDiscountingTask,2024.1.5,None,2024-11-12 10h41.18.039018 +0530,
27,50,21,5,4,39,2,84.94712760020047,,84.93140379991382,84.94712760020047,85.9482145998627,85.9482145998627,85.96207479992881,87.32872040010989,l,1.3708489001728594,None,04,001,2024-11-12_10h33.57.098,DelayDiscountingTask,2024.1.5,None,2024-11-12 10h41.18.039018 +0530,
78,80,162,5,5,40,6,87.34484030026942,,87.32924210000783,87.34484030026942,88.34403839986771,88.34403839986771,88.35981710022315,88.8777447999455,t,0.5224024001508951,None,04,001,2024-11-12_10h33.57.098,DelayDiscountingTask,2024.1.5,None,2024-11-12 10h41.18.039018 +0530,
11,30,7,5,6,41,0,88.89274979988113,,88.87820729985833,88.89274979988113,89.89286260027438,89.89286260027438,89.89286260027438,90.45985820004717,l,0.5634391997009516,None,04,001,2024-11-12_10h33.57.098,DelayDiscountingTask,2024.1.5,None,2024-11-12 10h41.18.039018 +0530,
15,35,13,6,0,42,1,90.47560349991545,,90.46056090015918,90.47560349991545,91.45849939994514,91.45849939994514,91.47618150012568,92.20875030010939,l,0.7402615998871624,None,04,001,2024-11-12_10h33.57.098,DelayDiscountingTask,2024.1.5,None,2024-11-12 10h41.18.039018 +0530,
27,50,21,6,1,43,2,92.22334730019793,,92.20943310018629,92.22334730019793,93.22248520003632,93.22248520003632,93.22248520003632,93.94139839988202,l,0.716942600440234,None,04,001,2024-11-12_10h33.57.098,DelayDiscountingTask,2024.1.5,None,2024-11-12 10h41.18.039018 +0530,
40,55,62,6,2,44,3,93.95528890006244,,93.94209460029379,93.95528890006244,94.95363470027223,94.95363470027223,94.9702750002034,95.88797320006415,t,0.9285587999038398,None,04,001,2024-11-12_10h33.57.098,DelayDiscountingTask,2024.1.5,None,2024-11-12 10h41.18.039018 +0530,
67,75,119,6,3,45,5,95.90319210011512,,95.88845239998773,95.90319210011512,96.90297019993886,96.90297019993886,96.91879180027172,97.48610470024869,t,0.5776893999427557,None,04,001,2024-11-12_10h33.57.098,DelayDiscountingTask,2024.1.5,None,2024-11-12 10h41.18.039018 +0530,
11,30,7,6,4,46,0,97.50190970022231,,97.48660949990153,97.50190970022231,98.50119390012696,98.50119390012696,98.51688220025972,99.06880620028824,l,0.5616427999921143,None,04,001,2024-11-12_10h33.57.098,DelayDiscountingTask,2024.1.5,None,2024-11-12 10h41.18.039018 +0530,
49,60,89,6,5,47,4,99.0839570001699,,99.06932320026681,99.0839570001699,100.08195450017229,100.08195450017229,100.08195450017229,100.61633899994195,t,0.5186954997479916,None,04,001,2024-11-12_10h33.57.098,DelayDiscountingTask,2024.1.5,None,2024-11-12 10h41.18.039018 +0530,
78,80,162,6,6,48,6,100.63222620030865,,100.6168041001074,100.63222620030865,101.63177980016917,101.63177980016917,101.6473823999986,102.1987260999158,t,0.5590387997217476,None,04,001,2024-11-12_10h33.57.098,DelayDiscountingTask,2024.1.5,None,2024-11-12 10h41.18.039018 +0530,
67,75,119,7,0,49,5,102.21351210027933,,102.19921760028228,102.21351210027933,103.21244010003284,103.21244010003284,103.21244010003284,104.04742110008374,t,0.8224225002340972,None,04,001,2024-11-12_10h33.57.098,DelayDiscountingTask,2024.1.5,None,2024-11-12 10h41.18.039018 +0530,
40,55,62,7,1,50,3,104.06286679999903,,104.04811150021851,104.06286679999903,105.06212700018659,105.06212700018659,105.07815060019493,105.77847630018368,t,0.7106702998280525,None,04,001,2024-11-12_10h33.57.098,DelayDiscountingTask,2024.1.5,None,2024-11-12 10h41.18.039018 +0530,
49,60,89,7,2,51,4,105.79397100023925,,105.77896470017731,105.79397100023925,106.79320820001885,106.79320820001885,106.80933219986036,107.31023079995066,t,0.5123409000225365,None,04,001,2024-11-12_10h33.57.098,DelayDiscountingTask,2024.1.5,None,2024-11-12 10h41.18.039018 +0530,
27,50,21,7,3,52,2,107.32590770022944,,107.31072690011933,107.32590770022944,108.32507150014862,108.32507150014862,108.34098839992657,109.0414913999848,l,0.7028481001034379,None,04,001,2024-11-12_10h33.57.098,DelayDiscountingTask,2024.1.5,None,2024-11-12 10h41.18.039018 +0530,
78,80,162,7,4,53,6,109.0576190999709,,109.04201020020992,109.0576190999709,110.05680519994348,110.05680519994348,110.07312900014222,110.6405426999554,t,0.5693378997966647,None,04,001,2024-11-12_10h33.57.098,DelayDiscountingTask,2024.1.5,None,2024-11-12 10h41.18.039018 +0530,
15,35,13,7,5,54,1,110.65625640004873,,110.64108650013804,110.65625640004873,111.65533199999481,111.65533199999481,111.67120880028233,112.25631619989872,l,0.5944365998730063,None,04,001,2024-11-12_10h33.57.098,DelayDiscountingTask,2024.1.5,None,2024-11-12 10h41.18.039018 +0530,
11,30,7,7,6,55,0,112.2706148000434,,112.25682030012831,112.2706148000434,113.26990010030568,113.26990010030568,113.26990010030568,113.97066550003365,l,0.684279799927026,None,04,001,2024-11-12_10h33.57.098,DelayDiscountingTask,2024.1.5,None,2024-11-12 10h41.18.039018 +0530,
15,35,13,8,0,56,1,113.98623730009422,,113.97120170015842,113.98623730009422,114.98540360014886,114.98540360014886,115.00172480009496,116.28551199985668,l,1.2895972998812795,None,04,001,2024-11-12_10h33.57.098,DelayDiscountingTask,2024.1.5,None,2024-11-12 10h41.18.039018 +0530,
27,50,21,8,1,57,2,116.30039509991184,,116.28600879991427,116.30039509991184,117.29946340015158,117.29946340015158,117.29946340015158,118.15086610009894,l,0.8442694996483624,None,04,001,2024-11-12_10h33.57.098,DelayDiscountingTask,2024.1.5,None,2024-11-12 10h41.18.039018 +0530,
49,60,89,8,2,58,4,118.16536149987951,,118.1513542002067,118.16536149987951,119.16501870006323,119.16501870006323,119.16501870006323,119.68408819986507,t,0.5134358000941575,None,04,001,2024-11-12_10h33.57.098,DelayDiscountingTask,2024.1.5,None,2024-11-12 10h41.18.039018 +0530,
78,80,162,8,3,59,6,119.69755150005221,,119.68474020017311,119.69755150005221,120.69688499998301,120.69688499998301,120.69688499998301,121.54843960003927,t,0.8460160000249743,None,04,001,2024-11-12_10h33.57.098,DelayDiscountingTask,2024.1.5,None,2024-11-12 10h41.18.039018 +0530,
67,75,119,8,4,60,5,121.56242620013654,,121.54912720015272,121.56242620013654,122.56158989993855,122.56158989993855,122.56158989993855,123.11374530009925,t,0.5431551998481154,None,04,001,2024-11-12_10h33.57.098,DelayDiscountingTask,2024.1.5,None,2024-11-12 10h41.18.039018 +0530,
40,55,62,8,5,61,3,123.12761919992045,,123.11439889995381,123.12761919992045,124.12697160011157,124.12697160011157,124.12697160011157,124.87774199992418,t,0.7435386003926396,None,04,001,2024-11-12_10h33.57.098,DelayDiscountingTask,2024.1.5,None,2024-11-12 10h41.18.039018 +0530,
11,30,7,8,6,62,0,124.89227529987693,,124.87821140000597,124.89227529987693,125.89147000014782,125.89147000014782,125.89147000014782,126.52528900001198,l,0.6175994998775423,None,04,001,2024-11-12_10h33.57.098,DelayDiscountingTask,2024.1.5,None,2024-11-12 10h41.18.039018 +0530,
78,80,162,9,0,63,6,126.5412987000309,,126.5257597998716,126.5412987000309,127.54052889999002,127.54052889999002,127.55690339999273,128.0414840001613,t,0.49414659989997745,None,04,001,2024-11-12_10h33.57.098,DelayDiscountingTask,2024.1.5,None,2024-11-12 10h41.18.039018 +0530,
67,75,119,9,1,64,5,128.05600310023874,,128.04201810015365,128.05600310023874,129.0551812001504,129.0551812001504,129.0551812001504,129.78964350000024,t,0.7273891000077128,None,04,001,2024-11-12_10h33.57.098,DelayDiscountingTask,2024.1.5,None,2024-11-12 10h41.18.039018 +0530,
27,50,21,9,2,65,2,129.8049373002723,,129.7902607000433,129.8049373002723,130.8040899001062,130.8040899001062,130.82014580024406,131.85340909985825,l,1.0347597999498248,None,04,001,2024-11-12_10h33.57.098,DelayDiscountingTask,2024.1.5,None,2024-11-12 10h41.18.039018 +0530,
15,35,13,9,3,66,1,131.86958190007135,,131.85392290027812,131.86958190007135,132.86873120022938,132.86873120022938,132.88519120030105,133.66965240007266,l,0.7945035002194345,None,04,001,2024-11-12_10h33.57.098,DelayDiscountingTask,2024.1.5,None,2024-11-12 10h41.18.039018 +0530,
49,60,89,9,4,67,4,133.6841160999611,,133.6701660999097,133.6841160999611,134.68379849987105,134.68379849987105,134.68379849987105,135.26782769989222,t,0.566952099557966,None,04,001,2024-11-12_10h33.57.098,DelayDiscountingTask,2024.1.5,None,2024-11-12 10h41.18.039018 +0530,
11,30,7,9,5,68,0,135.2829611999914,,135.26848019985482,135.2829611999914,136.2819075002335,136.2819075002335,136.2819075002335,136.96635999996215,l,0.6739547997713089,None,04,001,2024-11-12_10h33.57.098,DelayDiscountingTask,2024.1.5,None,2024-11-12 10h41.18.039018 +0530,
40,55,62,9,6,69,3,136.98100459994748,,136.9668816998601,136.98100459994748,137.98071289993823,137.98071289993823,137.98071289993823,138.68115899991244,t,0.6889766999520361,None,04,001,2024-11-12_10h33.57.098,DelayDiscountingTask,2024.1.5,None,2024-11-12 10h41.18.039018 +0530,
67,75,119,10,0,70,5,138.6971283000894,,138.68185220006853,138.6971283000894,139.69682150008157,139.69682150008157,139.71256170002744,140.38052170025185,t,0.678914500400424,None,04,001,2024-11-12_10h33.57.098,DelayDiscountingTask,2024.1.5,None,2024-11-12 10h41.18.039018 +0530,
40,55,62,10,1,71,3,140.39546489994973,,140.38123509986326,140.39546489994973,141.39503569994122,141.39503569994122,141.41120940027758,142.01171590015292,t,0.6007611001841724,None,04,001,2024-11-12_10h33.57.098,DelayDiscountingTask,2024.1.5,None,2024-11-12 10h41.18.039018 +0530,
78,80,162,10,2,72,6,142.02760880021378,,142.01242549996823,142.02760880021378,143.0266411001794,143.0266411001794,143.04254329996184,143.75921110017225,t,0.7257276000455022,None,04,001,2024-11-12_10h33.57.098,DelayDiscountingTask,2024.1.5,None,2024-11-12 10h41.18.039018 +0530,
11,30,7,10,3,73,0,143.77398490021005,,143.75976599985734,143.77398490021005,144.774400500115,144.774400500115,144.774400500115,145.62570310011506,l,0.8384545999579132,None,04,001,2024-11-12_10h33.57.098,DelayDiscountingTask,2024.1.5,None,2024-11-12 10h41.18.039018 +0530,
49,60,89,10,4,74,4,145.640163899865,,145.62638929998502,145.640163899865,146.6278083003126,146.6278083003126,146.63998840004206,147.1239908998832,t,0.491794400382787,None,04,001,2024-11-12_10h33.57.098,DelayDiscountingTask,2024.1.5,None,2024-11-12 10h41.18.039018 +0530,
27,50,21,10,5,75,2,147.13823270006105,,147.12474890006706,147.13823270006105,148.13723480002955,148.13723480002955,148.13723480002955,148.9880968001671,l,0.8332781000062823,None,04,001,2024-11-12_10h33.57.098,DelayDiscountingTask,2024.1.5,None,2024-11-12 10h41.18.039018 +0530,
15,35,13,10,6,76,1,149.00328500010073,,148.98862940026447,149.00328500010073,150.00222690030932,150.00222690030932,150.00222690030932,150.6212825998664,l,0.6018373002298176,None,04,001,2024-11-12_10h33.57.098,DelayDiscountingTask,2024.1.5,None,2024-11-12 10h41.18.039018 +0530,
15,35,13,11,0,77,1,150.6355928000994,,150.62192879989743,150.6355928000994,151.63442269992083,151.63442269992083,151.63442269992083,152.2694625002332,l,0.6330059003084898,None,04,001,2024-11-12_10h33.57.098,DelayDiscountingTask,2024.1.5,None,2024-11-12 10h41.18.039018 +0530,
27,50,21,11,1,78,2,152.28431349992752,,152.2701135003008,152.28431349992752,153.28369469987229,153.28369469987229,153.28369469987229,153.8513843002729,t,0.5566262002103031,None,04,001,2024-11-12_10h33.57.098,DelayDiscountingTask,2024.1.5,None,2024-11-12 10h41.18.039018 +0530,
11,30,7,11,2,79,0,153.86565669998527,,153.85206199996173,153.86565669998527,154.86422570003197,154.86422570003197,154.86422570003197,155.5157933998853,l,0.6460759998299181,None,04,001,2024-11-12_10h33.57.098,DelayDiscountingTask,2024.1.5,None,2024-11-12 10h41.18.039018 +0530,
49,60,89,11,3,80,4,155.53036120021716,,155.51624940009788,155.53036120021716,156.52944660000503,156.52944660000503,156.52944660000503,158.56214810023084,t,2.0228462000377476,None,04,001,2024-11-12_10h33.57.098,DelayDiscountingTask,2024.1.5,None,2024-11-12 10h41.18.039018 +0530,
40,55,62,11,4,81,3,158.57793179992586,,158.5626059002243,158.57793179992586,159.5771885998547,159.5771885998547,159.5936950002797,160.46005380013958,t,0.867006600368768,None,04,001,2024-11-12_10h33.57.098,DelayDiscountingTask,2024.1.5,None,2024-11-12 10h41.18.039018 +0530,
67,75,119,11,5,82,5,160.47640480007976,,160.46052339999005,160.47640480007976,161.47495849989355,161.47495849989355,161.49107520002872,162.35743350023404,t,0.8672154997475445,None,04,001,2024-11-12_10h33.57.098,DelayDiscountingTask,2024.1.5,None,2024-11-12 10h41.18.039018 +0530,
78,80,162,11,6,83,6,162.37374640023336,,162.35787709988654,162.37374640023336,163.35619219997898,163.35619219997898,163.37321799993515,165.07268460001796,t,1.7032141000963748,None,04,001,2024-11-12_10h33.57.098,DelayDiscountingTask,2024.1.5,None,2024-11-12 10h41.18.039018 +0530,
15,35,13,12,0,84,1,165.08760780002922,,165.07318350020796,165.08760780002922,166.08748580003157,166.08748580003157,166.08748580003157,167.30364029994234,l,1.2081126002594829,None,04,001,2024-11-12_10h33.57.098,DelayDiscountingTask,2024.1.5,None,2024-11-12 10h41.18.039018 +0530,
11,30,7,12,1,85,0,167.31935380026698,,167.30410970002413,167.31935380026698,168.31939770001918,168.31939770001918,168.31939770001918,169.2041882001795,l,0.8795704003423452,None,04,001,2024-11-12_10h33.57.098,DelayDiscountingTask,2024.1.5,None,2024-11-12 10h41.18.039018 +0530,
78,80,162,12,2,86,6,169.2179700001143,,169.2048444999382,169.2179700001143,170.2175294002518,170.2175294002518,170.2175294002518,171.06756340013817,t,0.8410897003486753,None,04,001,2024-11-12_10h33.57.098,DelayDiscountingTask,2024.1.5,None,2024-11-12 10h41.18.039018 +0530,
27,50,21,12,3,87,2,171.0824905000627,,171.06807160004973,171.0824905000627,172.08178459992632,172.08178459992632,172.08178459992632,172.86600829986855,l,0.7671041996218264,None,04,001,2024-11-12_10h33.57.098,DelayDiscountingTask,2024.1.5,None,2024-11-12 10h41.18.039018 +0530,
49,60,89,12,4,88,4,172.88090950017795,,172.86653550015762,172.88090950017795,173.88002800010145,173.88002800010145,173.88002800010145,174.53133390005678,t,0.6442899000830948,None,04,001,2024-11-12_10h33.57.098,DelayDiscountingTask,2024.1.5,None,2024-11-12 10h41.18.039018 +0530,
67,75,119,12,5,89,5,174.54598260018975,,174.53181779989973,174.54598260018975,175.5449140998535,175.5449140998535,175.5449140998535,176.27913440018892,t,0.7311602002009749,None,04,001,2024-11-12_10h33.57.098,DelayDiscountingTask,2024.1.5,None,2024-11-12 10h41.18.039018 +0530,
40,55,62,12,6,90,3,176.2950435001403,,176.27959690010175,176.2950435001403,177.2938112001866,177.2938112001866,177.31021660007536,177.92807790031657,t,0.6268559000454843,None,04,001,2024-11-12_10h33.57.098,DelayDiscountingTask,2024.1.5,None,2024-11-12 10h41.18.039018 +0530,
67,75,119,13,0,91,5,177.94243380008265,,177.92854280024767,177.94243380008265,178.94206980010495,178.94206980010495,178.94206980010495,179.69357819994912,t,0.7379346000961959,None,04,001,2024-11-12_10h33.57.098,DelayDiscountingTask,2024.1.5,None,2024-11-12 10h41.18.039018 +0530,
27,50,21,13,1,92,2,179.70818840013817,,179.6944285002537,179.70818840013817,180.7070323000662,180.7070323000662,180.7070323000662,181.6253150999546,l,0.9166105999611318,None,04,001,2024-11-12_10h33.57.098,DelayDiscountingTask,2024.1.5,None,2024-11-12 10h41.18.039018 +0530,
78,80,162,13,2,93,6,181.63932720012963,,181.62579159997404,181.63932720012963,182.63839560002089,182.63839560002089,182.63839560002089,183.50576480012387,t,0.8525712001137435,None,04,001,2024-11-12_10h33.57.098,DelayDiscountingTask,2024.1.5,None,2024-11-12 10h41.18.039018 +0530,
11,30,7,13,3,94,0,183.5215408001095,,183.50624040002003,183.5215408001095,184.52023270027712,184.52023270027712,184.53661910025403,186.85445149987936,l,2.317452299874276,None,04,001,2024-11-12_10h33.57.098,DelayDiscountingTask,2024.1.5,None,2024-11-12 10h41.18.039018 +0530,
40,55,62,13,4,95,3,186.86823910009116,,186.85510289995,186.86823910009116,187.86697159986943,187.86697159986943,187.86697159986943,188.4342034002766,t,0.5606861999258399,None,04,001,2024-11-12_10h33.57.098,DelayDiscountingTask,2024.1.5,None,2024-11-12 10h41.18.039018 +0530,
49,60,89,13,5,96,4,188.44996450003237,,188.43471980001777,188.44996450003237,189.43256779992953,189.43256779992953,189.450028100051,190.58421330014244,t,1.149001699872315,None,04,001,2024-11-12_10h33.57.098,DelayDiscountingTask,2024.1.5,None,2024-11-12 10h41.18.039018 +0530,
15,35,13,13,6,97,1,190.598196499981,,190.58496330026537,190.598196499981,191.59657950000837,191.59657950000837,191.6142179002054,192.24773669987917,l,0.642165900208056,None,04,001,2024-11-12_10h33.57.098,DelayDiscountingTask,2024.1.5,None,2024-11-12 10h41.18.039018 +0530,
67,75,119,14,0,98,5,192.262954399921,,192.24826110014692,192.262954399921,193.2617502999492,193.2617502999492,193.2617502999492,193.8957357001491,t,0.6213933997787535,None,04,001,2024-11-12_10h33.57.098,DelayDiscountingTask,2024.1.5,None,2024-11-12 10h41.18.039018 +0530,
49,60,89,14,1,99,4,193.91159459995106,,193.89635370019823,193.91159459995106,194.9107778999023,194.9107778999023,194.92676529986784,195.62775680003688,t,0.7028328999876976,None,04,001,2024-11-12_10h33.57.098,DelayDiscountingTask,2024.1.5,None,2024-11-12 10h41.18.039018 +0530,
27,50,21,14,2,100,2,195.64313019998372,,195.6283498001285,195.64313019998372,196.6432467000559,196.6432467000559,196.6432467000559,197.49383090017363,l,0.8445029999129474,None,04,001,2024-11-12_10h33.57.098,DelayDiscountingTask,2024.1.5,None,2024-11-12 10h41.18.039018 +0530,
40,55,62,14,3,101,3,197.50870530027896,,197.49451240012422,197.50870530027896,198.50835369993,198.50835369993,198.50835369993,199.74086919985712,t,1.2230398999527097,None,04,001,2024-11-12_10h33.57.098,DelayDiscountingTask,2024.1.5,None,2024-11-12 10h41.18.039018 +0530,
11,30,7,14,4,102,0,199.75576360011473,,199.74133910005912,199.75576360011473,200.75487150019035,200.75487150019035,200.75487150019035,201.30633570021018,l,0.5436975001357496,None,04,001,2024-11-12_10h33.57.098,DelayDiscountingTask,2024.1.5,None,2024-11-12 10h41.18.039018 +0530,
15,35,13,14,5,103,1,201.32078360021114,,201.30679009994492,201.32078360021114,202.32016280014068,202.32016280014068,202.32016280014068,202.9377808002755,l,0.6082834997214377,None,04,001,2024-11-12_10h33.57.098,DelayDiscountingTask,2024.1.5,None,2024-11-12 10h41.18.039018 +0530,
78,80,162,14,6,104,6,202.95245350012556,,202.93829340022057,202.95245350012556,203.9517391002737,203.9517391002737,203.9517391002737,205.0855932002887,t,1.1302645998075604,None,04,001,2024-11-12_10h33.57.098,DelayDiscountingTask,2024.1.5,None,2024-11-12 10h41.18.039018 +0530,
