pos_word,math,trials.thisRepN,trials.thisTrialN,trials.thisN,trials.thisIndex,trials_2.thisRepN,trials_2.thisTrialN,trials_2.thisN,trials_2.thisIndex,trials_3.thisRepN,trials_3.thisTrialN,trials_3.thisN,trials_3.thisIndex,trials_4.thisRepN,trials_4.thisTrialN,trials_4.thisN,trials_4.thisIndex,thisRow.t,notes,Intro.started,Introduction.started,key_resp.started,Intro.stopped,key_resp.keys,key_resp.rt,key_resp.duration,Words.started,key_resp_2.started,text.started,Words.stopped,key_resp_2.keys,key_resp_2.rt,key_resp_2.duration,text.stopped,DisTask.started,task.started,textbox.started,InstText.started,mouse.started,DisTask.stopped,textbox.text,mouse.x,mouse.y,mouse.leftButton,mouse.midButton,mouse.rightButton,mouse.time,mouse.clicked_name,Recall.started,RecallTask.started,key_resp_3.started,Recall.stopped,key_resp_3.keys,key_resp_3.rt,key_resp_3.duration,Testing.started,TestAns.started,Instr.started,mouse_2.started,Testing.stopped,TestAns.text,mouse_2.x,mouse_2.y,mouse_2.leftButton,mouse_2.midButton,mouse_2.rightButton,mouse_2.time,mouse_2.clicked_name,participant,session,date,expName,psychopyVersion,frameRate,expStart,
,,0,0,0,0,,,,,,,,,,,,,0.013798400294035673,,0.007335199974477291,0.013798400294035673,1.0134547003544867,5.803096100222319,space,4.766892600338906,None,,,,,,,,,,,,,,,,,,,,,,,,,,,,,,,,,,,,,,,,,,,01,001,2024-11-29_22h56.42.782,EmotionalValenceMemoryRecall,2024.1.5,None,2024-11-29 22h56.55.527571 +0530,
win,,,,,,0,0,0,4,,,,,,,,,5.824088900350034,,,,,,,,,5.81307870009914,5.824088900350034,7.307586300186813,9.623702799901366,right,3.7833837000653148,None,,,,,,,,,,,,,,,,,,,,,,,,,,,,,,,,,,,,01,001,2024-11-29_22h56.42.782,EmotionalValenceMemoryRecall,2024.1.5,None,2024-11-29 22h56.55.527571 +0530,
comedy,,,,,,0,1,1,5,,,,,,,,,9.638492200057954,,,,,,,,,9.624965799972415,9.638492200057954,11.137500500306487,13.153830700088292,right,3.5046238000504673,None,,,,,,,,,,,,,,,,,,,,,,,,,,,,,,,,,,,,01,001,2024-11-29_22h56.42.782,EmotionalValenceMemoryRecall,2024.1.5,None,2024-11-29 22h56.55.527571 +0530,
kiss,,,,,,0,2,2,9,,,,,,,,,13.169771200045943,,,,,,,,,13.154684400185943,13.169771200045943,14.667209499981254,17.68292920012027,right,4.503091000020504,None,17.681053699925542,,,,,,,,,,,,,,,,,,,,,,,,,,,,,,,,,,,01,001,2024-11-29_22h56.42.782,EmotionalValenceMemoryRecall,2024.1.5,None,2024-11-29 22h56.55.527571 +0530,
joyful,,,,,,0,3,3,11,,,,,,,,,17.69872139999643,,,,,,,,,17.684033900033683,17.69872139999643,19.196028700098395,20.262794299982488,right,2.5588774997740984,None,,,,,,,,,,,,,,,,,,,,,,,,,,,,,,,,,,,,01,001,2024-11-29_22h56.42.782,EmotionalValenceMemoryRecall,2024.1.5,None,2024-11-29 22h56.55.527571 +0530,
lucky,,,,,,0,4,4,13,,,,,,,,,20.27847920032218,,,,,,,,,20.263408300001174,20.27847920032218,21.777217000257224,22.91144540021196,right,2.6182009000331163,None,,,,,,,,,,,,,,,,,,,,,,,,,,,,,,,,,,,,01,001,2024-11-29_22h56.42.782,EmotionalValenceMemoryRecall,2024.1.5,None,2024-11-29 22h56.55.527571 +0530,
happy,,,,,,0,5,5,12,,,,,,,,,22.926512300036848,,,,,,,,,22.912330199964345,22.926512300036848,24.42484589992091,25.126047700177878,right,2.1897277999669313,None,,,,,,,,,,,,,,,,,,,,,,,,,,,,,,,,,,,,01,001,2024-11-29_22h56.42.782,EmotionalValenceMemoryRecall,2024.1.5,None,2024-11-29 22h56.55.527571 +0530,
riches,,,,,,0,6,6,8,,,,,,,,,25.14040239993483,,,,,,,,,25.126871699932963,25.14040239993483,26.63954900018871,27.82337830029428,right,2.6771725001744926,None,,,,,,,,,,,,,,,,,,,,,,,,,,,,,,,,,,,,01,001,2024-11-29_22h56.42.782,EmotionalValenceMemoryRecall,2024.1.5,None,2024-11-29 22h56.55.527571 +0530,
cheer,,,,,,0,7,7,16,,,,,,,,,27.837963700294495,,,,,,,,,27.8249596003443,27.837963700294495,29.336614100262523,30.120149500202388,right,2.2742844000458717,None,,,,,,,,,,,,,,,,,,,,,,,,,,,,,,,,,,,,01,001,2024-11-29_22h56.42.782,EmotionalValenceMemoryRecall,2024.1.5,None,2024-11-29 22h56.55.527571 +0530,
hug,,,,,,0,8,8,23,,,,,,,,,30.135769499931484,,,,,,,,,30.12067240010947,30.135769499931484,31.6343976999633,32.519455099944025,right,2.372095899656415,None,,,,,,,,,,,,,,,,,,,,,,,,,,,,,,,,,,,,01,001,2024-11-29_22h56.42.782,EmotionalValenceMemoryRecall,2024.1.5,None,2024-11-29 22h56.55.527571 +0530,
humor,,,,,,0,9,9,2,,,,,,,,,32.534079200122505,,,,,,,,,32.52026059990749,32.534079200122505,34.03278060024604,34.96644140034914,right,2.4215166000649333,None,,,,,,,,,,,,,,,,,,,,,,,,,,,,,,,,,,,,01,001,2024-11-29_22h56.42.782,EmotionalValenceMemoryRecall,2024.1.5,None,2024-11-29 22h56.55.527571 +0530,
joke,,,,,,0,10,10,17,,,,,,,,,34.982051600236446,,,,,,,,,34.96725520025939,34.982051600236446,36.480493700131774,38.96315910015255,right,3.972895700018853,None,,,,,,,,,,,,,,,,,,,,,,,,,,,,,,,,,,,,01,001,2024-11-29_22h56.42.782,EmotionalValenceMemoryRecall,2024.1.5,None,2024-11-29 22h56.55.527571 +0530,
fame,,,,,,0,11,11,24,,,,,,,,,38.97798780025914,,,,,,,,,38.96417050017044,38.97798780025914,40.4768731999211,41.52722069993615,right,2.5380926998332143,None,,,,,,,,,,,,,,,,,,,,,,,,,,,,,,,,,,,,01,001,2024-11-29_22h56.42.782,EmotionalValenceMemoryRecall,2024.1.5,None,2024-11-29 22h56.55.527571 +0530,
warmth,,,,,,0,12,12,21,,,,,,,,,41.54213030030951,,,,,,,,,41.52806970011443,41.54213030030951,43.04064840031788,44.693976799957454,right,3.143905700184405,None,,,,,,,,,,,,,,,,,,,,,,,,,,,,,,,,,,,,01,001,2024-11-29_22h56.42.782,EmotionalValenceMemoryRecall,2024.1.5,None,2024-11-29 22h56.55.527571 +0530,
profit,,,,,,0,13,13,22,,,,,,,,,44.70596590032801,,,,,,,,,44.69494009995833,44.70596590032801,46.2044410998933,47.32212320016697,right,2.608362500090152,None,,,,,,,,,,,,,,,,,,,,,,,,,,,,,,,,,,,,01,001,2024-11-29_22h56.42.782,EmotionalValenceMemoryRecall,2024.1.5,None,2024-11-29 22h56.55.527571 +0530,
thrill,,,,,,0,14,14,19,,,,,,,,,47.33649760019034,,,,,,,,,47.323078100103885,47.33649760019034,48.835426200181246,49.86945510003716,right,2.519910800270736,None,,,,,,,,,,,,,,,,,,,,,,,,,,,,,,,,,,,,01,001,2024-11-29_22h56.42.782,EmotionalValenceMemoryRecall,2024.1.5,None,2024-11-29 22h56.55.527571 +0530,
glory,,,,,,0,15,15,18,,,,,,,,,49.88400779990479,,,,,,,,,49.87033180007711,49.88400779990479,51.38277500029653,52.13441190030426,right,2.2391591002233326,None,,,,,,,,,,,,,,,,,,,,,,,,,,,,,,,,,,,,01,001,2024-11-29_22h56.42.782,EmotionalValenceMemoryRecall,2024.1.5,None,2024-11-29 22h56.55.527571 +0530,
mother,,,,,,0,16,16,3,,,,,,,,,52.14904680009931,,,,,,,,,52.13524870015681,52.14904680009931,53.647689499892294,55.16512560006231,left,3.0099655999802053,None,,,,,,,,,,,,,,,,,,,,,,,,,,,,,,,,,,,,01,001,2024-11-29_22h56.42.782,EmotionalValenceMemoryRecall,2024.1.5,None,2024-11-29 22h56.55.527571 +0530,
baby,,,,,,0,17,17,10,,,,,,,,,55.179277800023556,,,,,,,,,55.16625089989975,55.179277800023556,56.67744560027495,57.87785270018503,left,2.682949199806899,None,,,,,,,,,,,,,,,,,,,,,,,,,,,,,,,,,,,,01,001,2024-11-29_22h56.42.782,EmotionalValenceMemoryRecall,2024.1.5,None,2024-11-29 22h56.55.527571 +0530,
music,,,,,,0,18,18,15,,,,,,,,,57.893428900279105,,,,,,,,,57.87823439994827,57.893428900279105,59.392149300314486,60.493469800334424,right,2.591179700102657,None,,,,,,,,,,,,,,,,,,,,,,,,,,,,,,,,,,,,01,001,2024-11-29_22h56.42.782,EmotionalValenceMemoryRecall,2024.1.5,None,2024-11-29 22h56.55.527571 +0530,
joy,,,,,,0,19,19,1,,,,,,,,,60.50801589991897,,,,,,,,,60.49430590029806,60.50801589991897,62.00643500033766,62.67408400028944,right,2.1538451998494565,None,,,,,,,,,,,,,,,,,,,,,,,,,,,,,,,,,,,,01,001,2024-11-29_22h56.42.782,EmotionalValenceMemoryRecall,2024.1.5,None,2024-11-29 22h56.55.527571 +0530,
merry,,,,,,0,20,20,0,,,,,,,,,62.68901740014553,,,,,,,,,62.67493099998683,62.68901740014553,64.18776430003345,66.87055939994752,right,4.170542399864644,None,,,,,,,,,,,,,,,,,,,,,,,,,,,,,,,,,,,,01,001,2024-11-29_22h56.42.782,EmotionalValenceMemoryRecall,2024.1.5,None,2024-11-29 22h56.55.527571 +0530,
fun,,,,,,0,21,21,6,,,,,,,,,66.88513360032812,,,,,,,,,66.87167340004817,66.88513360032812,68.38412309996784,69.11837670020759,right,2.2181914001703262,None,,,,,,,,,,,,,,,,,,,,,,,,,,,,,,,,,,,,01,001,2024-11-29_22h56.42.782,EmotionalValenceMemoryRecall,2024.1.5,None,2024-11-29 22h56.55.527571 +0530,
gift,,,,,,0,22,22,14,,,,,,,,,69.13373140012845,,,,,,,,,69.11916969995946,69.13373140012845,70.6315476000309,71.53258250001818,left,2.388913200236857,None,,,,,,,,,,,,,,,,,,,,,,,,,,,,,,,,,,,,01,001,2024-11-29_22h56.42.782,EmotionalValenceMemoryRecall,2024.1.5,None,2024-11-29 22h56.55.527571 +0530,
proud,,,,,,0,23,23,20,,,,,,,,,71.5477706999518,,,,,,,,,71.53349660011008,71.5477706999518,73.04618660034612,73.91424200031906,right,2.3642997997812927,None,,,,,,,,,,,,,,,,,,,,,,,,,,,,,,,,,,,,01,001,2024-11-29_22h56.42.782,EmotionalValenceMemoryRecall,2024.1.5,None,2024-11-29 22h56.55.527571 +0530,
cash,,,,,,0,24,24,7,,,,,,,,,73.92849830025807,,,,,,,,,73.91520890034735,73.92849830025807,75.42717760009691,76.28028149995953,left,2.3485587001778185,None,,,,,,,,,,,,,,,,,,,,,,,,,,,,,,,,,,,,01,001,2024-11-29_22h56.42.782,EmotionalValenceMemoryRecall,2024.1.5,None,2024-11-29 22h56.55.527571 +0530,
,29 + 10 =,,,,,,,,,0,0,0,8,,,,,76.32902870001271,,,,,,,,,,,,,,,,,76.29196820035577,76.32902870001271,76.32902870001271,76.32902870001271,0.02984130010008812,80.20884199999273,39,[0.049074074074074076],[-0.3037037037037037],[1],[0],[0],[3.8972279001027346],['InstText'],,,,,,,,,,,,,,,,,,,,,01,001,2024-11-29_22h56.42.782,EmotionalValenceMemoryRecall,2024.1.5,None,2024-11-29 22h56.55.527571 +0530,
,32 - 45 =,,,,,,,,,0,1,1,6,,,,,80.24418439995497,,,,,,,,,,,,,,,,,80.2129601999186,80.24418439995497,80.24418439995497,80.24418439995497,0.013398299925029278,90.21400490030646,-13,[],[],[],[],[],[],[],,,,,,,,,,,,,,,,,,,,,01,001,2024-11-29_22h56.42.782,EmotionalValenceMemoryRecall,2024.1.5,None,2024-11-29 22h56.55.527571 +0530,
,69 - 12 =,,,,,,,,,0,2,2,1,,,,,90.24360019993037,,,,,,,,,,,,,,,,,90.21547470008954,90.24360019993037,90.24360019993037,90.24360019993037,0.012335199862718582,96.10965770017356,57,[0.049074074074074076],[-0.3037037037037037],[1],[0],[0],[5.8835346000269055],['InstText'],,,,,,,,,,,,,,,,,,,,,01,001,2024-11-29_22h56.42.782,EmotionalValenceMemoryRecall,2024.1.5,None,2024-11-29 22h56.55.527571 +0530,
,17 + 14 =,,,,,,,,,0,3,3,3,,,,,96.13425659993663,,,,,,,,,,,,,,,,,96.11084560025483,96.13425659993663,96.13425659993663,96.13425659993663,0.00856619980186224,99.9229351002723,31 ,[0.049074074074074076],[-0.3037037037037037],[1],[0],[0],[3.8025813000276685],['InstText'],,,,,,,,,,,,,,,,,,,,,01,001,2024-11-29_22h56.42.782,EmotionalValenceMemoryRecall,2024.1.5,None,2024-11-29 22h56.55.527571 +0530,
,25 + 28 =,,,,,,,,,0,4,4,5,,,,,99.94817680027336,,,,,,,,,,,,,,,,,99.92412779992446,99.94817680027336,99.94817680027336,99.94817680027336,0.008786899968981743,102.72073659999296,53,[0.049074074074074076],[-0.3037037037037037],[1],[0],[0],[2.78689630003646],['InstText'],,,,,,,,,,,,,,,,,,,,,01,001,2024-11-29_22h56.42.782,EmotionalValenceMemoryRecall,2024.1.5,None,2024-11-29 22h56.55.527571 +0530,
,84 + 35 =,,,,,,,,,0,5,5,13,,,,,102.74612500006333,,,,,,,,,,,,,,,,,102.72206090018153,102.74612500006333,102.74612500006333,102.74612500006333,0.007940799929201603,105.96677440032363,119,[0.049074074074074076],[-0.3037037037037037],[1],[0],[0],[3.2360955998301506],['InstText'],,,,,,,,,,,,,,,,,,,,,01,001,2024-11-29_22h56.42.782,EmotionalValenceMemoryRecall,2024.1.5,None,2024-11-29 22h56.55.527571 +0530,
,40 - 44 =,,,,,,,,,0,6,6,11,,,,,105.98947470029816,,,,,,,,,,,,,,,,,105.9680137000978,105.98947470029816,105.98947470029816,105.98947470029816,0.00658900011330843,109.1638497998938,-4,[0.049074074074074076],[-0.3037037037037037],[1],[0],[0],[3.1885016998276114],['InstText'],,,,,,,,,,,,,,,,,,,,,01,001,2024-11-29_22h56.42.782,EmotionalValenceMemoryRecall,2024.1.5,None,2024-11-29 22h56.55.527571 +0530,
,44 - 5 =,,,,,,,,,0,7,7,2,,,,,109.188145800028,,,,,,,,,,,,,,,,,109.16534190019593,109.188145800028,109.188145800028,109.188145800028,0.0079135000705719,114.3266568002291,39,[0.04537037037037037],[-0.30648148148148147],[1],[0],[0],[5.152564499992877],['InstText'],,,,,,,,,,,,,,,,,,,,,01,001,2024-11-29_22h56.42.782,EmotionalValenceMemoryRecall,2024.1.5,None,2024-11-29 22h56.55.527571 +0530,
,23 - 29 =,,,,,,,,,0,8,8,7,,,,,114.35057900007814,,,,,,,,,,,,,,,,,114.32794040022418,114.35057900007814,114.35057900007814,114.35057900007814,0.006537000183016062,117.15701099997386,-6,[0.04537037037037037],[-0.30648148148148147],[1],[0],[0],[2.8215960999950767],['InstText'],,,,,,,,,,,,,,,,,,,,,01,001,2024-11-29_22h56.42.782,EmotionalValenceMemoryRecall,2024.1.5,None,2024-11-29 22h56.55.527571 +0530,
,32 - 21 =,,,,,,,,,0,9,9,4,,,,,117.17743370030075,,,,,,,,,,,,,,,,,117.15837169997394,117.17743370030075,117.17743370030075,117.17743370030075,0.006373000331223011,119.9380145999603,11,[0.04537037037037037],[-0.30648148148148147],[1],[0],[0],[2.772315800189972],['InstText'],,,,,,,,,,,,,,,,,,,,,01,001,2024-11-29_22h56.42.782,EmotionalValenceMemoryRecall,2024.1.5,None,2024-11-29 22h56.55.527571 +0530,
,28 + 31 =,,,,,,,,,0,10,10,10,,,,,119.9623610000126,,,,,,,,,,,,,,,,,119.93931760033593,119.9623610000126,119.9623610000126,119.9623610000126,0.006754300091415644,122.15360870026052,59,[0.04537037037037037],[-0.30648148148148147],[1],[0],[0],[2.206586600281298],['InstText'],,,,,,,,,,,,,,,,,,,,,01,001,2024-11-29_22h56.42.782,EmotionalValenceMemoryRecall,2024.1.5,None,2024-11-29 22h56.55.527571 +0530,
,16 + 12 =,,,,,,,,,0,11,11,12,,,,,122.17796040000394,,,,,,,,,,,,,,,,,122.15478810016066,122.17796040000394,122.17796040000394,122.17796040000394,0.006931399926543236,124.250315700192,28,[0.04537037037037037],[-0.30648148148148147],[1],[0],[0],[2.0876556001603603],['InstText'],,,,,,,,,,,,,,,,,,,,,01,001,2024-11-29_22h56.42.782,EmotionalValenceMemoryRecall,2024.1.5,None,2024-11-29 22h56.55.527571 +0530,
,10 + 15 =,,,,,,,,,0,12,12,0,,,,,124.27413320029154,,,,,,,,,,,,,,,,,124.25158970011398,124.27413320029154,124.27413320029154,124.27413320029154,0.006690300069749355,126.56462300010026,25,[0.04351851851851852],[-0.3074074074074074],[1],[0],[0],[2.3055306002497673],['InstText'],,,,,,,,,,,,,,,,,,,,,01,001,2024-11-29_22h56.42.782,EmotionalValenceMemoryRecall,2024.1.5,None,2024-11-29 22h56.55.527571 +0530,
,47 + 50 =,,,,,,,,,0,13,13,14,,,,,126.58642149996012,,,,,,,,,,,,,,,,,126.56581080006436,126.58642149996012,126.58642149996012,126.58642149996012,0.005899599753320217,129.3615696001798,97,[0.04351851851851852],[-0.3074074074074074],[1],[0],[0],[2.789131499826908],['InstText'],,,,,,,,,,,,,,,,,,,,,01,001,2024-11-29_22h56.42.782,EmotionalValenceMemoryRecall,2024.1.5,None,2024-11-29 22h56.55.527571 +0530,
,41 + 23 =,,,,,,,,,0,14,14,9,,,,,129.3843626002781,,,,,,,,,,,,,,,,,129.36284380033612,129.3843626002781,129.3843626002781,129.3843626002781,0.006367399822920561,131.64333980018273,64,[0.04351851851851852],[-0.3074074074074074],[1],[0],[0],[2.273261799942702],['InstText'],,,,,,,,,,,,,,,,,,,,,01,001,2024-11-29_22h56.42.782,EmotionalValenceMemoryRecall,2024.1.5,None,2024-11-29 22h56.55.527571 +0530,
,,,,,,,,,,,,,,,,,,,,,,,,,,,,,,,,,,,,,,,,,,,,,,,,,131.6443151999265,131.6584342001006,131.6584342001006,134.4415585999377,space,2.7792569999583066,None,,,,,,,,,,,,,,01,001,2024-11-29_22h56.42.782,EmotionalValenceMemoryRecall,2024.1.5,None,2024-11-29 22h56.55.527571 +0530,
,,,,,,,,,,,,,,0,0,0,0,134.45907930005342,,,,,,,,,,,,,,,,,,,,,,,,,,,,,,,,,,,,,,134.44334840029478,134.45907930005342,134.45907930005342,0.0029140999540686607,138.32108090026304," win
",[0.010185185185185186],[-0.29259259259259257],[1],[0],[0],[3.8752474999055266],['Instr'],01,001,2024-11-29_22h56.42.782,EmotionalValenceMemoryRecall,2024.1.5,None,2024-11-29 22h56.55.527571 +0530,
,,,,,,,,,,,,,,1,0,1,0,138.34176769992337,,,,,,,,,,,,,,,,,,,,,,,,,,,,,,,,,,,,,,138.32490210002288,138.34176769992337,138.34176769992337,0.0015251999720931053,141.2384979003109,glory,[0.010185185185185186],[-0.29259259259259257],[1],[0],[0],[2.9113416001200676],['Instr'],01,001,2024-11-29_22h56.42.782,EmotionalValenceMemoryRecall,2024.1.5,None,2024-11-29 22h56.55.527571 +0530,
,,,,,,,,,,,,,,2,0,2,0,141.25738799991086,,,,,,,,,,,,,,,,,,,,,,,,,,,,,,,,,,,,,,141.24038550024852,141.25738799991086,141.25738799991086,0.001456699799746275,143.5995458001271,fame,[0.010185185185185186],[-0.29259259259259257],[1],[0],[0],[2.35703120008111],['Instr'],01,001,2024-11-29_22h56.42.782,EmotionalValenceMemoryRecall,2024.1.5,None,2024-11-29 22h56.55.527571 +0530,
,,,,,,,,,,,,,,3,0,3,0,143.61629860009998,,,,,,,,,,,,,,,,,,,,,,,,,,,,,,,,,,,,,,143.60157530009747,143.61629860009998,143.61629860009998,0.0014975001104176044,146.14647300029173,gift,[0.010185185185185186],[-0.29259259259259257],[1],[0],[0],[2.542624699883163],['Instr'],01,001,2024-11-29_22h56.42.782,EmotionalValenceMemoryRecall,2024.1.5,None,2024-11-29 22h56.55.527571 +0530,
,,,,,,,,,,,,,,4,0,4,0,146.16354739991948,,,,,,,,,,,,,,,,,,,,,,,,,,,,,,,,,,,,,,146.14841860020533,146.16354739991948,146.16354739991948,0.001531899906694889,149.39347250014544,mother,[0.003703703703703704],[-0.30277777777777776],[1],[0],[0],[3.242781499866396],['Instr'],01,001,2024-11-29_22h56.42.782,EmotionalValenceMemoryRecall,2024.1.5,None,2024-11-29 22h56.55.527571 +0530,
,,,,,,,,,,,,,,5,0,5,0,149.41076140012592,,,,,,,,,,,,,,,,,,,,,,,,,,,,,,,,,,,,,,149.39544230001047,149.41076140012592,149.41076140012592,0.0014268998056650162,151.65858880011365,baby,[0.003703703703703704],[-0.30277777777777776],[1],[0],[0],[2.2609020001254976],['Instr'],01,001,2024-11-29_22h56.42.782,EmotionalValenceMemoryRecall,2024.1.5,None,2024-11-29 22h56.55.527571 +0530,
,,,,,,,,,,,,,,6,0,6,0,151.67526510031894,,,,,,,,,,,,,,,,,,,,,,,,,,,,,,,,,,,,,,151.66057790024206,151.67526510031894,151.67526510031894,0.00141960009932518,153.57522320002317,hug,[0.003703703703703704],[-0.30277777777777776],[1],[0],[0],[1.9125675996765494],['Instr'],01,001,2024-11-29_22h56.42.782,EmotionalValenceMemoryRecall,2024.1.5,None,2024-11-29 22h56.55.527571 +0530,
,,,,,,,,,,,,,,7,0,7,0,153.59366350015625,,,,,,,,,,,,,,,,,,,,,,,,,,,,,,,,,,,,,,153.5772434999235,153.59366350015625,153.59366350015625,0.0014884001575410366,155.50522570032626,kiss,[0.003703703703703704],[-0.30277777777777776],[1],[0],[0],[1.9257710999809206],['Instr'],01,001,2024-11-29_22h56.42.782,EmotionalValenceMemoryRecall,2024.1.5,None,2024-11-29 22h56.55.527571 +0530,
,,,,,,,,,,,,,,8,0,8,0,155.5225545000285,,,,,,,,,,,,,,,,,,,,,,,,,,,,,,,,,,,,,,155.50724430009723,155.5225545000285,155.5225545000285,0.001534199807792902,159.23715550033376,warmth,[0.003703703703703704],[-0.30277777777777776],[1],[0],[0],[3.72751950006932],['Instr'],01,001,2024-11-29_22h56.42.782,EmotionalValenceMemoryRecall,2024.1.5,None,2024-11-29 22h56.55.527571 +0530,
,,,,,,,,,,,,,,9,0,9,0,159.25537950033322,,,,,,,,,,,,,,,,,,,,,,,,,,,,,,,,,,,,,,159.23916860017926,159.25537950033322,159.25537950033322,0.001411600038409233,161.51419740030542,fun,[0.003703703703703704],[-0.30277777777777776],[1],[0],[0],[2.2734094001352787],['Instr'],01,001,2024-11-29_22h56.42.782,EmotionalValenceMemoryRecall,2024.1.5,None,2024-11-29 22h56.55.527571 +0530,
,,,,,,,,,,,,,,10,0,10,0,161.529655800201,,,,,,,,,,,,,,,,,,,,,,,,,,,,,,,,,,,,,,161.5154240000993,161.529655800201,161.529655800201,0.0008736001327633858,163.87921399995685,joy,[0.003703703703703704],[-0.30277777777777776],[1],[0],[0],[2.3621291001327336],['Instr'],01,001,2024-11-29_22h56.42.782,EmotionalValenceMemoryRecall,2024.1.5,None,2024-11-29 22h56.55.527571 +0530,
,,,,,,,,,,,,,,11,0,11,0,163.89437420014292,,,,,,,,,,,,,,,,,,,,,,,,,,,,,,,,,,,,,,163.8801164003089,163.89437420014292,163.89437420014292,0.0009634001180529594,168.22665970027447,cheers,[0.003703703703703704],[-0.30277777777777776],[1],[0],[0],[4.344597799703479],['Instr'],01,001,2024-11-29_22h56.42.782,EmotionalValenceMemoryRecall,2024.1.5,None,2024-11-29 22h56.55.527571 +0530,
,,,,,,,,,,,,,,12,0,12,0,168.24446099996567,,,,,,,,,,,,,,,,,,,,,,,,,,,,,,,,,,,,,,168.22881700005382,168.24446099996567,168.24446099996567,0.0016312003135681152,171.70762940030545,merry,[0.003703703703703704],[-0.30277777777777776],[1],[0],[0],[3.4764622999355197],['Instr'],01,001,2024-11-29_22h56.42.782,EmotionalValenceMemoryRecall,2024.1.5,None,2024-11-29 22h56.55.527571 +0530,
,,,,,,,,,,,,,,13,0,13,0,171.7244130000472,,,,,,,,,,,,,,,,,,,,,,,,,,,,,,,,,,,,,,171.709807400126,171.7244130000472,171.7244130000472,0.001436999998986721,178.91452640015632,,[],[],[],[],[],[],[],01,001,2024-11-29_22h56.42.782,EmotionalValenceMemoryRecall,2024.1.5,None,2024-11-29 22h56.55.527571 +0530,
,,,,,,,,,,,,,,14,0,14,0,178.93055360019207,,,,,,,,,,,,,,,,,,,,,,,,,,,,,,,,,,,,,,178.91681530000642,178.93055360019207,178.93055360019207,0.008480799850076437,185.1757459002547,proud,[0.003703703703703704],[-0.30277777777777776],[1],[0],[0],[6.257008799817413],['Instr'],01,001,2024-11-29_22h56.42.782,EmotionalValenceMemoryRecall,2024.1.5,None,2024-11-29 22h56.55.527571 +0530,
,,,,,,,,,,,,,,15,0,15,0,185.1915163001977,,,,,,,,,,,,,,,,,,,,,,,,,,,,,,,,,,,,,,185.17731030005962,185.1915163001977,185.1915163001977,0.0009440998546779156,190.9559921999462,home,[-0.12129629629629629],[-0.30185185185185187],[1],[0],[0],[5.776977600064129],['Instr'],01,001,2024-11-29_22h56.42.782,EmotionalValenceMemoryRecall,2024.1.5,None,2024-11-29 22h56.55.527571 +0530,
,,,,,,,,,,,,,,16,0,16,0,190.97108749998733,,,,,,,,,,,,,,,,,,,,,,,,,,,,,,,,,,,,,,190.95791140012443,190.97108749998733,190.97108749998733,0.0014192000962793827,198.1623816001229,,[],[],[],[],[],[],[],01,001,2024-11-29_22h56.42.782,EmotionalValenceMemoryRecall,2024.1.5,None,2024-11-29 22h56.55.527571 +0530,
,,,,,,,,,,,,,,17,0,17,0,198.17903769994155,,,,,,,,,,,,,,,,,,,,,,,,,,,,,,,,,,,,,,198.16436590021476,198.17903769994155,198.17903769994155,0.007894599810242653,201.41078570019454,comedy,[-0.053703703703703705],[-0.30833333333333335],[1],[0],[0],[3.2442526002414525],['Instr'],01,001,2024-11-29_22h56.42.782,EmotionalValenceMemoryRecall,2024.1.5,None,2024-11-29 22h56.55.527571 +0530,
,,,,,,,,,,,,,,18,0,18,0,201.42892430024222,,,,,,,,,,,,,,,,,,,,,,,,,,,,,,,,,,,,,,201.4131896002218,201.42892430024222,201.42892430024222,0.0018170997500419617,203.87643880024552,humour,[-0.05925925925925926],[-0.29814814814814816],[1],[0],[0],[2.4610518999397755],['Instr'],01,001,2024-11-29_22h56.42.782,EmotionalValenceMemoryRecall,2024.1.5,None,2024-11-29 22h56.55.527571 +0530,
,,,,,,,,,,,,,,19,0,19,0,203.89230100018904,,,,,,,,,,,,,,,,,,,,,,,,,,,,,,,,,,,,,,203.8783438000828,203.89230100018904,203.89230100018904,0.001380300149321556,211.08398910006508,,[],[],[],[],[],[],[],01,001,2024-11-29_22h56.42.782,EmotionalValenceMemoryRecall,2024.1.5,None,2024-11-29 22h56.55.527571 +0530,
,,,,,,,,,,,,,,20,0,20,0,211.1016966002062,,,,,,,,,,,,,,,,,,,,,,,,,,,,,,,,,,,,,,211.08635989995673,211.1016966002062,211.1016966002062,0.009700799826532602,218.29440130013973,,[],[],[],[],[],[],[],01,001,2024-11-29_22h56.42.782,EmotionalValenceMemoryRecall,2024.1.5,None,2024-11-29 22h56.55.527571 +0530,
,,,,,,,,,,,,,,21,0,21,0,218.31109760003164,,,,,,,,,,,,,,,,,,,,,,,,,,,,,,,,,,,,,,218.29646950028837,218.31109760003164,218.31109760003164,0.019655799493193626,225.4875342999585,,[],[],[],[],[],[],[],01,001,2024-11-29_22h56.42.782,EmotionalValenceMemoryRecall,2024.1.5,None,2024-11-29 22h56.55.527571 +0530,
,,,,,,,,,,,,,,22,0,22,0,225.5044841002673,,,,,,,,,,,,,,,,,,,,,,,,,,,,,,,,,,,,,,225.4895895998925,225.5044841002673,225.5044841002673,0.012801199685782194,232.68053970020264,,[],[],[],[],[],[],[],01,001,2024-11-29_22h56.42.782,EmotionalValenceMemoryRecall,2024.1.5,None,2024-11-29 22h56.55.527571 +0530,
,,,,,,,,,,,,,,23,0,23,0,232.6968018002808,,,,,,,,,,,,,,,,,,,,,,,,,,,,,,,,,,,,,,232.6825701002963,232.6968018002808,232.6968018002808,0.005634699482470751,239.88999260030687,,[],[],[],[],[],[],[],01,001,2024-11-29_22h56.42.782,EmotionalValenceMemoryRecall,2024.1.5,None,2024-11-29 22h56.55.527571 +0530,
,,,,,,,,,,,,,,24,0,24,0,239.90674490015954,,,,,,,,,,,,,,,,,,,,,,,,,,,,,,,,,,,,,,239.89086019992828,239.90674490015954,239.90674490015954,0.013403499033302069,241.65688840020448,,[-0.05925925925925926],[-0.29814814814814816],[1],[0],[0],[1.7646151999942958],['Instr'],01,001,2024-11-29_22h56.42.782,EmotionalValenceMemoryRecall,2024.1.5,None,2024-11-29 22h56.55.527571 +0530,
