stair.thisTrialN,stair.stepSize,stair.intensity,thisRow.t,notes,trial.started,fixation.started,grating.started,key_resp.started,fixation.stopped,grating.stopped,trial.stopped,corrAns,tilt,key_resp.corr,stair.response,key_resp.rt,participant,session,date,expName,psychopyVersion,frameRate,expStart,
0,2,20.0,0.04103700000086974,,0.01689509999960137,0.04103700000086974,0.5503582000001188,0.5503582000001188,0.5730015999997704,0.8551554000005126,1.7560293000005913,left,-20.0,1,1,1.188023599999724,659763,001,2024-09-12_21h33.42.024,AdaptiveStaircaseProcedure,2024.1.5,None,2024-09-12 21h33.47.693455 +0530,
1,2,18.0,1.7644221000009566,,1.7563117000008788,1.7644221000009566,2.270935399999871,2.270935399999871,2.270935399999871,2.5701141000008647,2.8392143000000942,right,18.0,1,1,0.5535078000011708,659763,001,2024-09-12_21h33.42.024,AdaptiveStaircaseProcedure,2024.1.5,None,2024-09-12 21h33.47.693455 +0530,
2,2,16.0,2.8546724999996513,,2.839346900000237,2.8546724999996513,3.355292100000952,3.355292100000952,3.3699847999996564,3.6696415999995224,3.78913459999967,left,-16.0,1,1,0.4205762000001414,659763,001,2024-09-12_21h33.42.024,AdaptiveStaircaseProcedure,2024.1.5,None,2024-09-12 21h33.47.693455 +0530,
3,2,14.0,3.813035500001206,,3.7893127000006643,3.813035500001206,4.302879900000335,4.302879900000335,4.31873220000125,4.618362799999886,4.687992900000609,right,14.0,1,1,0.3804944000003161,659763,001,2024-09-12_21h33.42.024,AdaptiveStaircaseProcedure,2024.1.5,None,2024-09-12 21h33.47.693455 +0530,
4,1,12.0,4.702798399999665,,4.688128300000244,4.702798399999665,5.201487300000736,5.201487300000736,5.201487300000736,5.501648999999816,5.653463900000133,right,12.0,0,0,0.4407608000001346,659763,001,2024-09-12_21h33.42.024,AdaptiveStaircaseProcedure,2024.1.5,None,2024-09-12 21h33.47.693455 +0530,
5,1,13.0,5.66747100000066,,5.653598099999726,5.66747100000066,6.168539899999814,6.168539899999814,6.168539899999814,6.483975299999656,6.952197800001159,right,13.0,1,1,0.7793318000003637,659763,001,2024-09-12_21h33.42.024,AdaptiveStaircaseProcedure,2024.1.5,None,2024-09-12 21h33.47.693455 +0530,
6,1,13.0,6.96692240000084,,6.952385399999912,6.96692240000084,7.466967300000761,7.466967300000761,7.4822939000005135,7.781829900000957,7.950485000001208,right,13.0,1,1,0.46893249999993714,659763,001,2024-09-12_21h33.42.024,AdaptiveStaircaseProcedure,2024.1.5,None,2024-09-12 21h33.47.693455 +0530,
7,1,13.0,7.9664364000000205,,7.950613099999828,7.9664364000000205,8.448006800001167,8.448006800001167,8.481539300000804,8.748147000000245,8.933791499999643,right,13.0,1,1,0.4709597999990365,659763,001,2024-09-12_21h33.42.024,AdaptiveStaircaseProcedure,2024.1.5,None,2024-09-12 21h33.47.693455 +0530,
8,1,12.0,8.947611600000528,,8.933931200001098,8.947611600000528,9.44647040000018,9.44647040000018,9.44647040000018,9.747516999999789,9.868113300000914,left,-12.0,1,1,0.4177557999992132,659763,001,2024-09-12_21h33.42.024,AdaptiveStaircaseProcedure,2024.1.5,None,2024-09-12 21h33.47.693455 +0530,
9,1,12.0,9.890023199999632,,9.868277400000807,9.890023199999632,10.382912500001112,10.382912500001112,10.406678499999543,10.695437200000015,11.111834600000293,left,-12.0,1,1,0.7276228999999148,659763,001,2024-09-12_21h33.42.024,AdaptiveStaircaseProcedure,2024.1.5,None,2024-09-12 21h33.47.693455 +0530,
10,1,12.0,11.127830000001268,,11.111936000001151,11.127830000001268,11.626551600000312,11.626551600000312,11.641806200001156,11.94157720000112,12.227847899999688,left,-12.0,1,1,0.600169499999538,659763,001,2024-09-12_21h33.42.024,AdaptiveStaircaseProcedure,2024.1.5,None,2024-09-12 21h33.47.693455 +0530,
11,1,11.0,12.241103000000294,,12.227937100000418,12.241103000000294,12.740689199999906,12.740689199999906,12.740689199999906,13.040608600000269,13.293127799999638,right,11.0,1,1,0.5423646999988705,659763,001,2024-09-12_21h33.42.024,AdaptiveStaircaseProcedure,2024.1.5,None,2024-09-12 21h33.47.693455 +0530,
12,1,11.0,13.307001200000741,,13.293238399999609,13.307001200000741,13.794784900001105,13.794784900001105,13.80990810000003,14.109844300000987,14.296049800001128,left,-11.0,1,1,0.4978748000012274,659763,001,2024-09-12_21h33.42.024,AdaptiveStaircaseProcedure,2024.1.5,None,2024-09-12 21h33.47.693455 +0530,
13,1,11.0,14.318832900000416,,14.296180000001186,14.318832900000416,14.807062800000494,14.807062800000494,14.82245950000106,15.107202799999868,15.222564499999862,right,11.0,1,1,0.39993479999975534,659763,001,2024-09-12_21h33.42.024,AdaptiveStaircaseProcedure,2024.1.5,None,2024-09-12 21h33.47.693455 +0530,
14,1,10.0,15.23935259999962,,15.22263109999949,15.23935259999962,15.721431899999516,15.721431899999516,15.755688700000974,16.02126270000008,16.055364499999996,left,-10.0,1,1,0.3248486000011326,659763,001,2024-09-12_21h33.42.024,AdaptiveStaircaseProcedure,2024.1.5,None,2024-09-12 21h33.47.693455 +0530,
15,1,10.0,16.072438000001057,,16.05543680000119,16.072438000001057,16.554406500001278,16.554406500001278,16.587677200001053,16.855598199999804,17.005222100000537,right,10.0,1,1,0.4472339000003558,659763,001,2024-09-12_21h33.42.024,AdaptiveStaircaseProcedure,2024.1.5,None,2024-09-12 21h33.47.693455 +0530,
16,1,10.0,17.020042699999976,,17.005293500000334,17.020042699999976,17.50741150000067,17.50741150000067,17.524029100000917,17.824324400000478,17.958000900000116,left,-10.0,1,1,0.4342018999996071,659763,001,2024-09-12_21h33.42.024,AdaptiveStaircaseProcedure,2024.1.5,None,2024-09-12 21h33.47.693455 +0530,
17,1,9.0,17.97402570000122,,17.958138500000132,17.97402570000122,18.474204399999508,18.474204399999508,18.48961919999965,18.78809160000128,18.974986600000193,right,9.0,1,1,0.4882261999991897,659763,001,2024-09-12_21h33.42.024,AdaptiveStaircaseProcedure,2024.1.5,None,2024-09-12 21h33.47.693455 +0530,
18,1,9.0,18.99852920000012,,18.975148999999874,18.99852920000012,19.489305400000376,19.489305400000376,19.504681100001108,19.804770500000814,19.99104840000109,right,9.0,1,1,0.4949476000001596,659763,001,2024-09-12_21h33.42.024,AdaptiveStaircaseProcedure,2024.1.5,None,2024-09-12 21h33.47.693455 +0530,
19,1,9.0,20.01420540000072,,19.991202299999713,20.01420540000072,20.506591000001208,20.506591000001208,20.529841300000044,20.82061319999957,20.923601899999994,left,-9.0,1,1,0.41028390000064974,659763,001,2024-09-12_21h33.42.024,AdaptiveStaircaseProcedure,2024.1.5,None,2024-09-12 21h33.47.693455 +0530,
20,1,8.0,20.946550200000274,,20.92378699999972,20.946550200000274,21.437574999999924,21.437574999999924,21.452900899999804,21.752493300000424,22.42020709999997,left,-8.0,1,1,0.9796389999992243,659763,001,2024-09-12_21h33.42.024,AdaptiveStaircaseProcedure,2024.1.5,None,2024-09-12 21h33.47.693455 +0530,
21,1,8.0,22.436773999999787,,22.420351000000664,22.436773999999787,22.91846170000099,22.91846170000099,22.951160800001162,23.21833880000122,23.570070400000986,left,-8.0,1,1,0.6447616000004928,659763,001,2024-09-12_21h33.42.024,AdaptiveStaircaseProcedure,2024.1.5,None,2024-09-12 21h33.47.693455 +0530,
22,1,8.0,23.58357050000086,,23.570253400001093,23.58357050000086,24.084173799999917,24.084173799999917,24.084173799999917,24.38404360000095,24.703178300000218,right,8.0,1,1,0.6148680000005697,659763,001,2024-09-12_21h33.42.024,AdaptiveStaircaseProcedure,2024.1.5,None,2024-09-12 21h33.47.693455 +0530,
23,1,7.0,24.726654800000688,,24.70331150000129,24.726654800000688,25.217385699999795,25.217385699999795,25.23303440000018,25.51437199999964,25.95080450000023,right,7.0,1,1,0.7194257000010111,659763,001,2024-09-12_21h33.42.024,AdaptiveStaircaseProcedure,2024.1.5,None,2024-09-12 21h33.47.693455 +0530,
24,1,7.0,25.965978000000177,,25.95093749999978,25.965978000000177,26.46514080000088,26.46514080000088,26.46514080000088,26.764513399999487,26.9653341000012,left,-7.0,1,1,0.4890734999989945,659763,001,2024-09-12_21h33.42.024,AdaptiveStaircaseProcedure,2024.1.5,None,2024-09-12 21h33.47.693455 +0530,
25,1,7.0,26.98204059999989,,26.965465499999482,26.98204059999989,27.46399300000121,27.46399300000121,27.497046899999987,27.763577699999587,27.950742200000604,right,7.0,1,1,0.4769245999996201,659763,001,2024-09-12_21h33.42.024,AdaptiveStaircaseProcedure,2024.1.5,None,2024-09-12 21h33.47.693455 +0530,
26,1,6.0,27.973502400000143,,27.95087710000007,27.973502400000143,28.463928500001202,28.463928500001202,28.479594200000065,28.77926330000082,28.9663187999995,right,6.0,1,1,0.4959275000001071,659763,001,2024-09-12_21h33.42.024,AdaptiveStaircaseProcedure,2024.1.5,None,2024-09-12 21h33.47.693455 +0530,
27,1,6.0,28.989421199999924,,28.96644809999998,28.989421199999924,29.479499099999884,29.479499099999884,29.49548700000014,29.77956819999963,30.213760000000548,left,-6.0,1,1,0.7218043000011676,659763,001,2024-09-12_21h33.42.024,AdaptiveStaircaseProcedure,2024.1.5,None,2024-09-12 21h33.47.693455 +0530,
28,1,6.0,30.22829509999974,,30.213888600001155,30.22829509999974,30.727982300000804,30.727982300000804,30.727982300000804,31.026939600000333,31.712617500001215,left,-6.0,1,1,0.9701546000014787,659763,001,2024-09-12_21h33.42.024,AdaptiveStaircaseProcedure,2024.1.5,None,2024-09-12 21h33.47.693455 +0530,
29,1,5.0,31.72653480000008,,31.712751600000047,31.72653480000008,32.22463620000053,32.22463620000053,32.24043309999979,32.52425640000001,32.89489909999975,left,-5.0,1,1,0.65439730000071,659763,001,2024-09-12_21h33.42.024,AdaptiveStaircaseProcedure,2024.1.5,None,2024-09-12 21h33.47.693455 +0530,
30,1,5.0,32.90858389999994,,32.89502220000031,32.90858389999994,33.408263700001044,33.408263700001044,33.408263700001044,33.70768700000008,34.16076040000007,right,5.0,1,1,0.748006699999678,659763,001,2024-09-12_21h33.42.024,AdaptiveStaircaseProcedure,2024.1.5,None,2024-09-12 21h33.47.693455 +0530,
31,1,5.0,34.18476490000103,,34.1609210000006,34.18476490000103,34.6747761000006,34.6747761000006,34.69014900000002,34.97489570000107,35.176360000001296,left,-5.0,1,1,0.48337379999975383,659763,001,2024-09-12_21h33.42.024,AdaptiveStaircaseProcedure,2024.1.5,None,2024-09-12 21h33.47.693455 +0530,
32,1,4.0,35.189959100000124,,35.176499299999705,35.189959100000124,35.68976339999972,35.68976339999972,35.68976339999972,35.988932500000374,36.2575680000009,left,-4.0,1,1,0.5562030999990384,659763,001,2024-09-12_21h33.42.024,AdaptiveStaircaseProcedure,2024.1.5,None,2024-09-12 21h33.47.693455 +0530,
33,1,4.0,36.27238530000068,,36.25774889999957,36.27238530000068,36.77171459999954,36.77171459999954,36.78882870000052,37.075207100000625,37.60725699999966,right,4.0,1,1,0.8205454999988433,659763,001,2024-09-12_21h33.42.024,AdaptiveStaircaseProcedure,2024.1.5,None,2024-09-12 21h33.47.693455 +0530,
34,1,4.0,37.63074489999963,,37.60738700000002,37.63074489999963,38.12159109999993,38.12159109999993,38.13655839999956,38.437059100000624,38.57140260000051,left,-4.0,1,1,0.4418380999995861,659763,001,2024-09-12_21h33.42.024,AdaptiveStaircaseProcedure,2024.1.5,None,2024-09-12 21h33.47.693455 +0530,
35,1,3.0,38.58762000000024,,38.57159309999952,38.58762000000024,39.0816616000011,39.0816616000011,39.10336840000127,39.38302140000087,39.80555070000082,left,-3.0,1,1,0.7151292999988073,659763,001,2024-09-12_21h33.42.024,AdaptiveStaircaseProcedure,2024.1.5,None,2024-09-12 21h33.47.693455 +0530,
36,1,3.0,39.81841320000058,,39.80571080000118,39.81841320000058,40.32056519999969,40.32056519999969,40.32056519999969,40.63516069999969,40.73639820000062,right,3.0,1,1,0.40456709999853047,659763,001,2024-09-12_21h33.42.024,AdaptiveStaircaseProcedure,2024.1.5,None,2024-09-12 21h33.47.693455 +0530,
37,1,3.0,40.75233570000091,,40.73653039999954,40.75233570000091,41.235340900000665,41.235340900000665,41.252255700001115,41.55074960000093,41.786957899999834,left,-3.0,1,1,0.5329109000012977,659763,001,2024-09-12_21h33.42.024,AdaptiveStaircaseProcedure,2024.1.5,None,2024-09-12 21h33.47.693455 +0530,
38,1,2.0,41.8000518000008,,41.78709239999989,41.8000518000008,42.300155000000814,42.300155000000814,42.300155000000814,42.599923699999636,43.01919000000089,left,-2.0,1,1,0.7093517999983305,659763,001,2024-09-12_21h33.42.024,AdaptiveStaircaseProcedure,2024.1.5,None,2024-09-12 21h33.47.693455 +0530,
39,1,2.0,43.042613300000085,,43.01932140000099,43.042613300000085,43.53363360000003,43.53363360000003,43.54939139999988,43.84871999999996,44.249930300000415,left,-2.0,1,1,0.7130371000002924,659763,001,2024-09-12_21h33.42.024,AdaptiveStaircaseProcedure,2024.1.5,None,2024-09-12 21h33.47.693455 +0530,
40,1,2.0,44.265830300000744,,44.25006140000005,44.265830300000744,44.76420180000059,44.76420180000059,44.76420180000059,45.06383910000113,45.4508564000007,left,-2.0,1,1,0.6792380999995657,659763,001,2024-09-12_21h33.42.024,AdaptiveStaircaseProcedure,2024.1.5,None,2024-09-12 21h33.47.693455 +0530,
41,0.5,1.0,45.47332129999995,,45.45099020000089,45.47332129999995,45.96431240000129,45.96431240000129,45.97988590000023,46.279346299999816,47.064907300000414,left,-1.0,0,0,1.0823659999987285,659763,001,2024-09-12_21h33.42.024,AdaptiveStaircaseProcedure,2024.1.5,None,2024-09-12 21h33.47.693455 +0530,
42,0.5,1.5,47.07853480000085,,47.06504270000005,47.07853480000085,47.577945799999725,47.577945799999725,47.577945799999725,47.877811700000166,48.146370300000854,left,-1.5,1,1,0.5552401000004465,659763,001,2024-09-12_21h33.42.024,AdaptiveStaircaseProcedure,2024.1.5,None,2024-09-12 21h33.47.693455 +0530,
43,0.5,1.5,48.16259530000025,,48.146553599999606,48.16259530000025,48.66225620000114,48.66225620000114,48.677657199999885,48.97679810000045,49.329527300000336,left,-1.5,1,1,0.664103499999328,659763,001,2024-09-12_21h33.42.024,AdaptiveStaircaseProcedure,2024.1.5,None,2024-09-12 21h33.47.693455 +0530,
44,0.5,1.5,49.34290770000007,,49.32966370000031,49.34290770000007,49.84287670000049,49.84287670000049,49.84287670000049,50.14260500000091,50.676645200001076,right,1.5,1,1,0.8205725999996503,659763,001,2024-09-12_21h33.42.024,AdaptiveStaircaseProcedure,2024.1.5,None,2024-09-12 21h33.47.693455 +0530,
45,0.5,1.0,50.69324120000056,,50.67678379999961,50.69324120000056,51.175332400000116,51.175332400000116,51.20841490000021,51.47461790000125,52.1760962999997,right,1.0,1,1,0.9942903999999544,659763,001,2024-09-12_21h33.42.024,AdaptiveStaircaseProcedure,2024.1.5,None,2024-09-12 21h33.47.693455 +0530,
46,0.5,1.0,52.192009600001256,,52.17622990000018,52.192009600001256,52.69197359999998,52.69197359999998,52.70681030000014,53.00635429999966,53.34096920000047,right,1.0,1,1,0.6370917000003828,659763,001,2024-09-12_21h33.42.024,AdaptiveStaircaseProcedure,2024.1.5,None,2024-09-12 21h33.47.693455 +0530,
47,0.5,1.0,53.35703959999955,,53.3411372999999,53.35703959999955,53.856581500000175,53.856581500000175,53.872376400000576,54.15706429999955,55.27366989999973,right,1.0,1,1,1.4134457999989536,659763,001,2024-09-12_21h33.42.024,AdaptiveStaircaseProcedure,2024.1.5,None,2024-09-12 21h33.47.693455 +0530,
48,0.5,0.5,55.289494800001194,,55.27380869999979,55.289494800001194,55.788889800000106,55.788889800000106,55.80666680000104,56.10408110000026,56.43982340000002,left,-0.5,0,0,0.6415067999987514,659763,001,2024-09-12_21h33.42.024,AdaptiveStaircaseProcedure,2024.1.5,None,2024-09-12 21h33.47.693455 +0530,
49,0.5,1.0,56.45344210000076,,56.43996490000063,56.45344210000076,56.95230790000096,56.95230790000096,56.95230790000096,57.25320749999992,58.15760290000071,left,-1.0,0,0,1.1889159999991534,659763,001,2024-09-12_21h33.42.024,AdaptiveStaircaseProcedure,2024.1.5,None,2024-09-12 21h33.47.693455 +0530,
50,0.5,1.5,58.17849130000104,,58.15783180000108,58.17849130000104,58.66809889999968,58.66809889999968,58.686359999999695,58.967488700000104,59.420317300000534,left,-1.5,0,0,0.7400388000005478,659763,001,2024-09-12_21h33.42.024,AdaptiveStaircaseProcedure,2024.1.5,None,2024-09-12 21h33.47.693455 +0530,
51,0.5,2.0,59.44352509999953,,59.420498999999836,59.44352509999953,59.93539109999983,59.93539109999983,59.95041710000078,60.24988610000037,60.3846709999998,right,2.0,1,1,0.44564379999974335,659763,001,2024-09-12_21h33.42.024,AdaptiveStaircaseProcedure,2024.1.5,None,2024-09-12 21h33.47.693455 +0530,
52,0.5,2.0,60.40118470000016,,60.38480309999977,60.40118470000016,60.900473100000454,60.900473100000454,60.915333799999644,61.21561980000115,61.70159080000121,right,2.0,1,1,0.7864699000001565,659763,001,2024-09-12_21h33.42.024,AdaptiveStaircaseProcedure,2024.1.5,None,2024-09-12 21h33.47.693455 +0530,
53,0.5,2.0,61.72494150000057,,61.70172590000038,61.72494150000057,62.21654169999965,62.21654169999965,62.231558999999834,62.5306015999995,62.65031369999997,right,2.0,1,1,0.4160630000005767,659763,001,2024-09-12_21h33.42.024,AdaptiveStaircaseProcedure,2024.1.5,None,2024-09-12 21h33.47.693455 +0530,
54,0.5,1.5,62.664054300001226,,62.65045060000011,62.664054300001226,63.163747200000216,63.163747200000216,63.163747200000216,63.46319059999951,63.7988064000001,left,-1.5,1,1,0.6269731999982469,659763,001,2024-09-12_21h33.42.024,AdaptiveStaircaseProcedure,2024.1.5,None,2024-09-12 21h33.47.693455 +0530,
55,0.5,1.5,63.81444100000044,,63.79895810000016,63.81444100000044,64.31329180000102,64.31329180000102,64.31329180000102,64.6123260000004,65.3802979000011,right,1.5,1,1,1.0629318000010244,659763,001,2024-09-12_21h33.42.024,AdaptiveStaircaseProcedure,2024.1.5,None,2024-09-12 21h33.47.693455 +0530,
56,0.5,1.5,65.39559910000025,,65.38046399999985,65.39559910000025,65.8961685000013,65.8961685000013,65.91096330000073,66.21098920000077,66.57899999999972,right,1.5,1,1,0.679303599999912,659763,001,2024-09-12_21h33.42.024,AdaptiveStaircaseProcedure,2024.1.5,None,2024-09-12 21h33.47.693455 +0530,
57,0.5,1.0,66.59602570000061,,66.57917690000068,66.59602570000061,67.0942998999999,67.0942998999999,67.11012200000005,67.3941992,67.71146050000061,right,1.0,1,1,0.6069578000006004,659763,001,2024-09-12_21h33.42.024,AdaptiveStaircaseProcedure,2024.1.5,None,2024-09-12 21h33.47.693455 +0530,
58,0.5,1.0,67.72758419999991,,67.71161650000067,67.72758419999991,68.20937010000125,68.20937010000125,68.24292330000026,68.5083238999996,69.44302600000083,right,1.0,1,1,1.227730500000689,659763,001,2024-09-12_21h33.42.024,AdaptiveStaircaseProcedure,2024.1.5,None,2024-09-12 21h33.47.693455 +0530,
59,0.5,1.0,69.45958980000069,,69.44316249999974,69.45958980000069,69.95830449999994,69.95830449999994,69.97454839999955,70.27341110000089,70.36010739999983,left,-1.0,1,1,0.3923092999993969,659763,001,2024-09-12_21h33.42.024,AdaptiveStaircaseProcedure,2024.1.5,None,2024-09-12 21h33.47.693455 +0530,
60,0.5,0.5,70.38395200000014,,70.36023990000103,70.38395200000014,70.87465239999983,70.87465239999983,70.88986070000101,71.18993290000071,71.52368370000113,right,0.5,0,0,0.6473967000001721,659763,001,2024-09-12_21h33.42.024,AdaptiveStaircaseProcedure,2024.1.5,None,2024-09-12 21h33.47.693455 +0530,
61,0.5,1.0,71.53748650000125,,71.52382039999975,71.53748650000125,72.0374279000007,72.0374279000007,72.05353959999957,72.35356060000049,72.85282449999977,left,-1.0,1,1,0.8015555000001768,659763,001,2024-09-12_21h33.42.024,AdaptiveStaircaseProcedure,2024.1.5,None,2024-09-12 21h33.47.693455 +0530,
62,0.5,1.0,72.86891289999949,,72.85290540000096,72.86891289999949,73.36940140000115,73.36940140000115,73.38526960000127,73.68394110000008,74.15159040000071,right,1.0,0,0,0.7711614999989251,659763,001,2024-09-12_21h33.42.024,AdaptiveStaircaseProcedure,2024.1.5,None,2024-09-12 21h33.47.693455 +0530,
63,0.5,1.5,74.16822710000088,,74.15167780000047,74.16822710000088,74.66971879999983,74.66971879999983,74.66971879999983,74.96982720000051,75.38706100000127,right,1.5,1,1,0.7141768000001321,659763,001,2024-09-12_21h33.42.024,AdaptiveStaircaseProcedure,2024.1.5,None,2024-09-12 21h33.47.693455 +0530,
64,0.5,1.5,75.40098690000013,,75.3872293000004,75.40098690000013,75.89867330000015,75.89867330000015,75.91584239999975,76.19821010000123,76.58760090000033,right,1.5,1,1,0.6742754000006244,659763,001,2024-09-12_21h33.42.024,AdaptiveStaircaseProcedure,2024.1.5,None,2024-09-12 21h33.47.693455 +0530,
65,0.5,1.5,76.61095740000019,,76.58780250000018,76.61095740000019,77.10138519999964,77.10138519999964,77.11858310000025,77.40076709999994,77.78676059999998,left,-1.5,1,1,0.6703577000007499,659763,001,2024-09-12_21h33.42.024,AdaptiveStaircaseProcedure,2024.1.5,None,2024-09-12 21h33.47.693455 +0530,
66,0.5,1.0,77.81047330000001,,77.78689920000033,77.81047330000001,78.3015660000001,78.3015660000001,78.31667930000003,78.61600460000045,78.93530850000025,left,-1.0,0,0,0.6166726000010385,659763,001,2024-09-12_21h33.42.024,AdaptiveStaircaseProcedure,2024.1.5,None,2024-09-12 21h33.47.693455 +0530,
67,0.5,1.5,78.9495310000002,,78.93544900000052,78.9495310000002,79.44985430000088,79.44985430000088,79.44985430000088,79.76509520000036,80.21788879999986,right,1.5,1,1,0.7584985999983473,659763,001,2024-09-12_21h33.42.024,AdaptiveStaircaseProcedure,2024.1.5,None,2024-09-12 21h33.47.693455 +0530,
68,0.5,1.5,80.2414602000008,,80.21804460000021,80.2414602000008,80.73192930000005,80.73192930000005,80.74710600000071,81.04730940000081,81.29966369999966,right,1.5,1,1,0.5575523999996221,659763,001,2024-09-12_21h33.42.024,AdaptiveStaircaseProcedure,2024.1.5,None,2024-09-12 21h33.47.693455 +0530,
69,0.5,1.5,81.31308910000007,,81.29982130000099,81.31308910000007,81.8140839000007,81.8140839000007,81.8140839000007,82.1295351000008,82.31568890000017,left,-1.5,0,0,0.48416980000001786,659763,001,2024-09-12_21h33.42.024,AdaptiveStaircaseProcedure,2024.1.5,None,2024-09-12 21h33.47.693455 +0530,
70,0.5,2.0,82.33897400000023,,82.31585880000057,82.33897400000023,82.83016370000041,82.83016370000041,82.84528920000048,83.14531480000005,83.430932700001,left,-2.0,1,1,0.5896176000005653,659763,001,2024-09-12_21h33.42.024,AdaptiveStaircaseProcedure,2024.1.5,None,2024-09-12 21h33.47.693455 +0530,
71,0.5,2.0,83.44516320000002,,83.43107670000063,83.44516320000002,83.94452980000096,83.94452980000096,83.94452980000096,84.24520800000028,84.61289120000038,left,-2.0,1,1,0.6579020000008313,659763,001,2024-09-12_21h33.42.024,AdaptiveStaircaseProcedure,2024.1.5,None,2024-09-12 21h33.47.693455 +0530,
72,0.5,2.0,84.62854210000114,,84.61303120000048,84.62854210000114,85.12702050000007,85.12702050000007,85.14395660000082,85.42689220000102,85.67774670000108,left,-2.0,1,1,0.5365852999984781,659763,001,2024-09-12_21h33.42.024,AdaptiveStaircaseProcedure,2024.1.5,None,2024-09-12 21h33.47.693455 +0530,
73,0.5,1.5,85.6936882000009,,85.67793200000051,85.6936882000009,86.17605800000092,86.17605800000092,86.1944910000002,86.47546739999962,86.93214810000063,right,1.5,0,0,0.7437712999999349,659763,001,2024-09-12_21h33.42.024,AdaptiveStaircaseProcedure,2024.1.5,None,2024-09-12 21h33.47.693455 +0530,
74,0.5,2.0,86.95166170000084,,86.93234190000112,86.95166170000084,87.44237820000126,87.44237820000126,87.45881510000072,87.75749890000043,88.20942250000007,right,2.0,0,0,0.7568582000003516,659763,001,2024-09-12_21h33.42.024,AdaptiveStaircaseProcedure,2024.1.5,None,2024-09-12 21h33.47.693455 +0530,
75,0.5,2.5,88.22311410000111,,88.20959419999963,88.22311410000111,88.72323010000036,88.72323010000036,88.72323010000036,89.02300910000122,89.8576565000003,left,-2.5,1,1,1.1217305999998644,659763,001,2024-09-12_21h33.42.024,AdaptiveStaircaseProcedure,2024.1.5,None,2024-09-12 21h33.47.693455 +0530,
76,0.5,2.5,89.87309470000037,,89.8577922000004,89.87309470000037,90.37253469999996,90.37253469999996,90.38933530000031,90.67270740000095,91.1560356000009,left,-2.5,1,1,0.7706779999989521,659763,001,2024-09-12_21h33.42.024,AdaptiveStaircaseProcedure,2024.1.5,None,2024-09-12 21h33.47.693455 +0530,
77,0.5,2.5,91.1724119999999,,91.15616600000067,91.1724119999999,91.67128290000073,91.67128290000073,91.68694700000015,91.97130310000102,92.58878510000068,right,2.5,1,1,0.9111718000003748,659763,001,2024-09-12_21h33.42.024,AdaptiveStaircaseProcedure,2024.1.5,None,2024-09-12 21h33.47.693455 +0530,
78,0.5,2.0,92.60466970000016,,92.58891980000044,92.60466970000016,93.10358550000092,93.10358550000092,93.1196258,93.41928709999956,93.73702700000104,left,-2.0,1,1,0.6155835999998089,659763,001,2024-09-12_21h33.42.024,AdaptiveStaircaseProcedure,2024.1.5,None,2024-09-12 21h33.47.693455 +0530,
79,0.5,2.0,93.75135880000016,,93.73718250000093,93.75135880000016,94.25202790000003,94.25202790000003,94.25202790000003,94.55181840000114,94.90464090000023,right,2.0,1,1,0.6410380000015721,659763,001,2024-09-12_21h33.42.024,AdaptiveStaircaseProcedure,2024.1.5,None,2024-09-12 21h33.47.693455 +0530,
80,0.5,2.0,94.9277032000009,,94.90479690000029,94.9277032000009,95.418144700001,95.418144700001,95.43368250000094,95.73354110000037,96.38589250000041,right,2.0,1,1,0.9563496999999188,659763,001,2024-09-12_21h33.42.024,AdaptiveStaircaseProcedure,2024.1.5,None,2024-09-12 21h33.47.693455 +0530,
81,0.5,1.5,96.4093582000005,,96.38603460000013,96.4093582000005,96.89979479999965,96.89979479999965,96.91561390000061,97.21544619999986,97.31727200000023,left,-1.5,1,1,0.40464760000031674,659763,001,2024-09-12_21h33.42.024,AdaptiveStaircaseProcedure,2024.1.5,None,2024-09-12 21h33.47.693455 +0530,
82,0.5,1.5,97.33281759999954,,97.31740830000126,97.33281759999954,97.8326632999997,97.8326632999997,97.84802450000097,98.14757670000108,98.5344599,left,-1.5,1,1,0.6908124000001408,659763,001,2024-09-12_21h33.42.024,AdaptiveStaircaseProcedure,2024.1.5,None,2024-09-12 21h33.47.693455 +0530,
83,0.5,1.5,98.55693040000006,,98.53458950000095,98.55693040000006,99.04798599999958,99.04798599999958,99.06334770000103,99.36348820000057,99.71595660000094,left,-1.5,1,1,0.6572871000007581,659763,001,2024-09-12_21h33.42.024,AdaptiveStaircaseProcedure,2024.1.5,None,2024-09-12 21h33.47.693455 +0530,
84,0.5,1.0,99.72955270000057,,99.71609180000087,99.72955270000057,100.23076609999953,100.23076609999953,100.23076609999953,100.54563190000044,100.98076840000067,right,1.0,0,0,0.7422822999997152,659763,001,2024-09-12_21h33.42.024,AdaptiveStaircaseProcedure,2024.1.5,None,2024-09-12 21h33.47.693455 +0530,
85,0.5,1.5,100.99683709999954,,100.98093150000022,100.99683709999954,101.49553820000074,101.49553820000074,101.49553820000074,101.81124850000015,101.89596429999983,left,-1.5,1,1,0.39495199999873876,659763,001,2024-09-12_21h33.42.024,AdaptiveStaircaseProcedure,2024.1.5,None,2024-09-12 21h33.47.693455 +0530,
86,0.5,1.5,101.90819490000104,,101.8960461000006,101.90819490000104,102.41058630000043,102.41058630000043,102.41058630000043,102.71019420000084,103.04587820000052,left,-1.5,1,1,0.6332213999994565,659763,001,2024-09-12_21h33.42.024,AdaptiveStaircaseProcedure,2024.1.5,None,2024-09-12 21h33.47.693455 +0530,
87,0.5,1.5,103.06122940000023,,103.04608540000118,103.06122940000023,103.56177539999953,103.56177539999953,103.57657219999965,103.87581800000044,103.92912280000019,left,-1.5,1,1,0.3654124000004231,659763,001,2024-09-12_21h33.42.024,AdaptiveStaircaseProcedure,2024.1.5,None,2024-09-12 21h33.47.693455 +0530,
88,0.5,1.0,103.95262960000036,,103.9293161000005,103.95262960000036,104.44358490000013,104.44358490000013,104.45860790000006,104.75855930000034,105.0129952999996,right,1.0,1,1,0.5670995000000403,659763,001,2024-09-12_21h33.42.024,AdaptiveStaircaseProcedure,2024.1.5,None,2024-09-12 21h33.47.693455 +0530,
89,0.5,1.0,105.03479169999991,,105.01319760000115,105.03479169999991,105.52521220000017,105.52521220000017,105.54062650000014,105.84043600000041,105.94201749999957,left,-1.0,0,0,0.40715219999947294,659763,001,2024-09-12_21h33.42.024,AdaptiveStaircaseProcedure,2024.1.5,None,2024-09-12 21h33.47.693455 +0530,
90,0.5,1.5,105.95854390000022,,105.9421956999995,105.95854390000022,106.44068160000097,106.44068160000097,106.47348520000014,106.73931360000097,106.8742669000003,right,1.5,0,0,0.42513770000005024,659763,001,2024-09-12_21h33.42.024,AdaptiveStaircaseProcedure,2024.1.5,None,2024-09-12 21h33.47.693455 +0530,
91,0.5,2.0,106.89058380000097,,106.8744200000001,106.89058380000097,107.37318030000097,107.37318030000097,107.3903117000009,107.67196440000043,107.82458140000017,left,-2.0,0,0,0.44055219999972905,659763,001,2024-09-12_21h33.42.024,AdaptiveStaircaseProcedure,2024.1.5,None,2024-09-12 21h33.47.693455 +0530,
92,0.5,2.5,107.83862200000112,,107.82475030000023,107.83862200000112,108.33980330000122,108.33980330000122,108.33980330000122,108.65437689999999,108.75646000000052,left,-2.5,0,0,0.414566499999637,659763,001,2024-09-12_21h33.42.024,AdaptiveStaircaseProcedure,2024.1.5,None,2024-09-12 21h33.47.693455 +0530,
93,0.5,3.0,108.77232689999983,,108.7565969999996,108.77232689999983,109.25493559999995,109.25493559999995,109.27191590000075,109.55359210000097,109.80741900000066,right,3.0,1,1,0.5500947999989876,659763,001,2024-09-12_21h33.42.024,AdaptiveStaircaseProcedure,2024.1.5,None,2024-09-12 21h33.47.693455 +0530,
94,0.5,3.0,109.82992800000102,,109.80755660000068,109.82992800000102,110.32207270000072,110.32207270000072,110.33692750000046,110.63592270000117,110.67165969999951,left,-3.0,0,0,0.34591350000118837,659763,001,2024-09-12_21h33.42.024,AdaptiveStaircaseProcedure,2024.1.5,None,2024-09-12 21h33.47.693455 +0530,
95,0.5,3.5,110.68732360000104,,110.67180010000084,110.68732360000104,111.18705720000071,111.18705720000071,111.20226470000125,111.5017970000008,111.70379560000038,left,-3.5,1,1,0.508305699999255,659763,001,2024-09-12_21h33.42.024,AdaptiveStaircaseProcedure,2024.1.5,None,2024-09-12 21h33.47.693455 +0530,
96,0.5,3.5,111.71974430000046,,111.70392730000094,111.71974430000046,112.2189244000001,112.2189244000001,112.23426760000075,112.51912570000059,112.96977320000042,right,3.5,1,1,0.7440956000009464,659763,001,2024-09-12_21h33.42.024,AdaptiveStaircaseProcedure,2024.1.5,None,2024-09-12 21h33.47.693455 +0530,
97,0.5,3.5,112.98567739999999,,112.9699027000006,112.98567739999999,113.48468309999953,113.48468309999953,113.49984020000011,113.80076910000025,114.28534949999994,right,3.5,1,1,0.7961119999999937,659763,001,2024-09-12_21h33.42.024,AdaptiveStaircaseProcedure,2024.1.5,None,2024-09-12 21h33.47.693455 +0530,
98,0.5,3.0,114.3005475000009,,114.28548870000122,114.3005475000009,114.79899550000118,114.79899550000118,114.79899550000118,115.09835510000084,115.45088820000092,right,3.0,0,0,0.6441792999994504,659763,001,2024-09-12_21h33.42.024,AdaptiveStaircaseProcedure,2024.1.5,None,2024-09-12 21h33.47.693455 +0530,
99,0.5,3.5,115.46466080000027,,115.4510594000003,115.46466080000027,115.96438330000092,115.96438330000092,115.96438330000092,116.26376400000117,116.74980390000019,right,3.5,0,0,0.7705880000012257,659763,001,2024-09-12_21h33.42.024,AdaptiveStaircaseProcedure,2024.1.5,None,2024-09-12 21h33.47.693455 +0530,
100,0.5,4.0,116.76379410000118,,116.74994300000071,116.76379410000118,117.26352390000102,117.26352390000102,117.26352390000102,117.56264159999955,117.99831640000048,right,4.0,0,0,0.724285599999348,659763,001,2024-09-12_21h33.42.024,AdaptiveStaircaseProcedure,2024.1.5,None,2024-09-12 21h33.47.693455 +0530,
101,0.5,4.5,118.01333410000007,,117.9984499000002,118.01333410000007,118.51395179999963,118.51395179999963,118.52822580000065,118.82808280000063,118.88172830000076,right,4.5,0,0,0.36188360000051034,659763,001,2024-09-12_21h33.42.024,AdaptiveStaircaseProcedure,2024.1.5,None,2024-09-12 21h33.47.693455 +0530,
102,0.5,5.0,118.89501829999972,,118.88187060000018,118.89501829999972,119.39495650000026,119.39495650000026,119.39495650000026,119.69410720000087,119.94637719999992,right,5.0,1,1,0.5422551000010571,659763,001,2024-09-12_21h33.42.024,AdaptiveStaircaseProcedure,2024.1.5,None,2024-09-12 21h33.47.693455 +0530,
103,0.5,5.0,119.96276779999971,,119.94654249999985,119.96276779999971,120.4620171000006,120.4620171000006,120.47683069999948,120.77665830000115,120.81130230000053,right,5.0,1,1,0.3334219000007579,659763,001,2024-09-12_21h33.42.024,AdaptiveStaircaseProcedure,2024.1.5,None,2024-09-12 21h33.47.693455 +0530,
104,0.5,5.0,120.82737610000004,,120.81147280000005,120.82737610000004,121.30955510000058,121.30955510000058,121.34304119999979,121.60989090000112,121.91050499999983,left,-5.0,1,1,0.5890271999996912,659763,001,2024-09-12_21h33.42.024,AdaptiveStaircaseProcedure,2024.1.5,None,2024-09-12 21h33.47.693455 +0530,
105,0.5,4.5,121.92702459999964,,121.91063910000048,121.92702459999964,122.40876659999958,122.40876659999958,122.4428282000008,,122.44520920000105,left,-4.5,1,1,0.02821339999900374,659763,001,2024-09-12_21h33.42.024,AdaptiveStaircaseProcedure,2024.1.5,None,2024-09-12 21h33.47.693455 +0530,
106,0.5,4.5,122.46917380000014,,122.44537940000009,122.46917380000014,122.95958860000064,122.95958860000064,122.97455380000065,123.27443810000113,123.54191540000102,left,-4.5,1,1,0.574222600000212,659763,001,2024-09-12_21h33.42.024,AdaptiveStaircaseProcedure,2024.1.5,None,2024-09-12 21h33.47.693455 +0530,
107,0.5,4.5,123.55876669999998,,123.54205420000108,123.55876669999998,124.04105630000049,124.04105630000049,124.0735306000006,,124.09352820000095,right,4.5,0,0,0.04241840000031516,659763,001,2024-09-12_21h33.42.024,AdaptiveStaircaseProcedure,2024.1.5,None,2024-09-12 21h33.47.693455 +0530,
108,0.5,5.0,124.11648840000089,,124.0936696000008,124.11648840000089,124.60783950000041,124.60783950000041,124.62273230000028,124.92261099999996,125.34293600000092,right,5.0,1,1,0.7330822999992961,659763,001,2024-09-12_21h33.42.024,AdaptiveStaircaseProcedure,2024.1.5,None,2024-09-12 21h33.47.693455 +0530,
109,0.5,5.0,125.36566070000117,,125.34306649999962,125.36566070000117,125.85680950000096,125.85680950000096,125.87238270000125,126.17179370000122,126.52451180000025,right,5.0,1,1,0.6562543000000005,659763,001,2024-09-12_21h33.42.024,AdaptiveStaircaseProcedure,2024.1.5,None,2024-09-12 21h33.47.693455 +0530,
110,0.5,5.0,126.54765090000001,,126.52464090000103,126.54765090000001,127.0388726000001,127.0388726000001,127.05447060000006,,127.17436029999953,right,5.0,1,1,0.13336300000082701,659763,001,2024-09-12_21h33.42.024,AdaptiveStaircaseProcedure,2024.1.5,None,2024-09-12 21h33.47.693455 +0530,
111,0.5,4.5,127.19694990000062,,127.17450269999972,127.19694990000062,127.6875467000009,127.6875467000009,127.70350560000043,128.00337310000032,128.4892985000006,right,4.5,1,1,0.7953493000004528,659763,001,2024-09-12_21h33.42.024,AdaptiveStaircaseProcedure,2024.1.5,None,2024-09-12 21h33.47.693455 +0530,
112,0.5,4.5,128.5130480000007,,128.48948630000086,128.5130480000007,129.00349649999953,129.00349649999953,129.01997070000107,,129.2538170000007,right,4.5,1,1,0.23786459999973886,659763,001,2024-09-12_21h33.42.024,AdaptiveStaircaseProcedure,2024.1.5,None,2024-09-12 21h33.47.693455 +0530,
113,0.5,4.5,129.26981970000088,,129.25394679999954,129.26981970000088,129.76938379999956,129.76938379999956,129.78651940000054,130.08477889999995,130.40439680000054,right,4.5,1,1,0.626488199999585,659763,001,2024-09-12_21h33.42.024,AdaptiveStaircaseProcedure,2024.1.5,None,2024-09-12 21h33.47.693455 +0530,
114,0.5,4.0,130.42746369999986,,130.40453049999996,130.42746369999986,130.9169092000011,130.9169092000011,130.93508210000073,131.21879960000115,131.22085669999979,right,4.0,1,1,0.29897709999931976,659763,001,2024-09-12_21h33.42.024,AdaptiveStaircaseProcedure,2024.1.5,None,2024-09-12 21h33.47.693455 +0530,
115,0.5,4.0,131.24391280000054,,131.2212942999995,131.24391280000054,131.7347176000003,131.7347176000003,131.7502209000013,132.04907699999967,132.39734560000034,left,-4.0,1,1,0.6466016000013042,659763,001,2024-09-12_21h33.42.024,AdaptiveStaircaseProcedure,2024.1.5,None,2024-09-12 21h33.47.693455 +0530,
116,0.5,4.0,132.41399430000092,,132.39741890000005,132.41399430000092,132.91328150000118,132.91328150000118,132.91328150000118,,133.0461032000003,right,4.0,0,0,None,659763,001,2024-09-12_21h33.42.024,AdaptiveStaircaseProcedure,2024.1.5,None,2024-09-12 21h33.47.693455 +0530,
117,0.5,4.5,133.06211880000046,,133.0461704999998,133.06211880000046,133.5445978000007,133.5445978000007,133.5621327000008,133.84489320000102,134.54500200000075,left,-4.5,0,0,0.9953733000002103,659763,001,2024-09-12_21h33.42.024,AdaptiveStaircaseProcedure,2024.1.5,None,2024-09-12 21h33.47.693455 +0530,
118,0.5,5.0,134.5609953000003,,134.54510459999983,134.5609953000003,135.06090829999994,135.06090829999994,135.07736020000084,135.38014620000104,136.16087789999983,left,-5.0,0,0,1.0954005000003235,659763,001,2024-09-12_21h33.42.024,AdaptiveStaircaseProcedure,2024.1.5,None,2024-09-12 21h33.47.693455 +0530,
119,0.5,5.5,136.1773334999998,,136.16097269999955,136.1773334999998,136.6763148000009,136.6763148000009,136.69221500000094,136.9916487999999,137.19213540000055,left,-5.5,1,1,0.5003545999989001,659763,001,2024-09-12_21h33.42.024,AdaptiveStaircaseProcedure,2024.1.5,None,2024-09-12 21h33.47.693455 +0530,
120,0.5,5.5,137.2087577000002,,137.19219750000047,137.2087577000002,137.6950428,137.6950428,137.71217810000053,137.9936471000001,138.31286030000047,left,-5.5,1,1,0.6041716999989148,659763,001,2024-09-12_21h33.42.024,AdaptiveStaircaseProcedure,2024.1.5,None,2024-09-12 21h33.47.693455 +0530,
121,0.5,5.5,138.32656250000036,,138.31299020000006,138.32656250000036,138.82626470000105,138.82626470000105,138.82626470000105,139.1260622000009,139.44544119999955,right,5.5,1,1,0.615030700000716,659763,001,2024-09-12_21h33.42.024,AdaptiveStaircaseProcedure,2024.1.5,None,2024-09-12 21h33.47.693455 +0530,
122,0.5,5.0,139.45855740000115,,139.44558049999978,139.45855740000115,139.9592547000011,139.9592547000011,139.9592547000011,140.2583770000001,140.62673160000122,right,5.0,1,1,0.6645566999995935,659763,001,2024-09-12_21h33.42.024,AdaptiveStaircaseProcedure,2024.1.5,None,2024-09-12 21h33.47.693455 +0530,
123,0.5,5.0,140.6428651999995,,140.62686469999971,140.6428651999995,141.14308770000025,141.14308770000025,141.15777470000103,141.45799009999973,141.71299440000075,left,-5.0,1,1,0.5548492999987502,659763,001,2024-09-12_21h33.42.024,AdaptiveStaircaseProcedure,2024.1.5,None,2024-09-12 21h33.47.693455 +0530,
124,0.5,5.0,141.7337994999998,,141.7131300000001,141.7337994999998,142.223586600001,142.223586600001,142.23948279999968,142.52448370000093,142.77554050000072,right,5.0,1,1,0.5361040000007051,659763,001,2024-09-12_21h33.42.024,AdaptiveStaircaseProcedure,2024.1.5,None,2024-09-12 21h33.47.693455 +0530,
125,0.5,4.5,142.79110290000062,,142.7757739000008,142.79110290000062,143.29032329999973,143.29032329999973,143.30592760000036,143.58947629999966,143.7404736999997,left,-4.5,1,1,0.4394635000007838,659763,001,2024-09-12_21h33.42.024,AdaptiveStaircaseProcedure,2024.1.5,None,2024-09-12 21h33.47.693455 +0530,
126,0.5,4.5,143.75660890000108,,143.7406117999999,143.75660890000108,144.25578880000103,144.25578880000103,144.2688171000009,144.56858959999954,144.63642740000068,right,4.5,1,1,0.37914199999977427,659763,001,2024-09-12_21h33.42.024,AdaptiveStaircaseProcedure,2024.1.5,None,2024-09-12 21h33.47.693455 +0530,
127,0.5,4.5,144.65454620000128,,144.6365165999996,144.65454620000128,145.13722729999972,145.13722729999972,145.15575780000108,145.43557180000062,145.4871535000002,right,4.5,0,0,0.34139329999925394,659763,001,2024-09-12_21h33.42.024,AdaptiveStaircaseProcedure,2024.1.5,None,2024-09-12 21h33.47.693455 +0530,
128,0.5,5.0,145.5014202000002,,145.48728240000128,145.5014202000002,145.98482660000082,145.98482660000082,146.0030996000005,146.28748170000108,146.52226320000045,left,-5.0,1,1,0.5294094000000769,659763,001,2024-09-12_21h33.42.024,AdaptiveStaircaseProcedure,2024.1.5,None,2024-09-12 21h33.47.693455 +0530,
129,0.5,5.0,146.5356009999996,,146.52239569999983,146.5356009999996,147.03493720000006,147.03493720000006,147.03493720000006,147.33513820000007,147.6693718000006,left,-5.0,1,1,0.6262024999996356,659763,001,2024-09-12_21h33.42.024,AdaptiveStaircaseProcedure,2024.1.5,None,2024-09-12 21h33.47.693455 +0530,
130,0.5,5.0,147.6860555000003,,147.66950130000077,147.6860555000003,148.18577639999967,148.18577639999967,148.20133290000012,148.48585280000043,148.73544330000004,right,5.0,1,1,0.5346527000001515,659763,001,2024-09-12_21h33.42.024,AdaptiveStaircaseProcedure,2024.1.5,None,2024-09-12 21h33.47.693455 +0530,
131,0.5,4.5,148.75155690000065,,148.7355817000007,148.75155690000065,149.23450430000048,149.23450430000048,149.25171310000042,149.5329595000003,149.5860757999999,left,-4.5,1,1,0.33662569999978587,659763,001,2024-09-12_21h33.42.024,AdaptiveStaircaseProcedure,2024.1.5,None,2024-09-12 21h33.47.693455 +0530,
132,0.5,4.5,149.59930429999986,,149.58620809999957,149.59930429999986,150.0997642000002,150.0997642000002,150.0997642000002,150.3987846,150.53490750000128,right,4.5,1,1,0.4186176000002888,659763,001,2024-09-12_21h33.42.024,AdaptiveStaircaseProcedure,2024.1.5,None,2024-09-12 21h33.47.693455 +0530,
133,0.5,4.5,150.54953920000116,,150.53504199999952,150.54953920000116,151.04973150000114,151.04973150000114,151.06505760000073,151.3639691999997,151.4333776000003,right,4.5,0,0,0.38102669999898353,659763,001,2024-09-12_21h33.42.024,AdaptiveStaircaseProcedure,2024.1.5,None,2024-09-12 21h33.47.693455 +0530,
134,0.5,5.0,151.4490722999999,,151.4335174000007,151.4490722999999,151.9482079999998,151.9482079999998,151.96400549999998,152.26367449999998,152.38425910000115,right,5.0,1,1,0.42753369999991264,659763,001,2024-09-12_21h33.42.024,AdaptiveStaircaseProcedure,2024.1.5,None,2024-09-12 21h33.47.693455 +0530,
135,0.5,5.0,152.40728479999962,,152.38439420000032,152.40728479999962,152.89779439999984,152.89779439999984,152.91422760000023,153.2128644000004,153.38156549999985,right,5.0,1,1,0.47839960000055726,659763,001,2024-09-12_21h33.42.024,AdaptiveStaircaseProcedure,2024.1.5,None,2024-09-12 21h33.47.693455 +0530,
136,0.5,5.0,153.3975440000013,,153.38169390000076,153.3975440000013,153.89723100000083,153.89723100000083,153.91284540000015,154.21216950000053,154.4314445,left,-5.0,1,1,0.5166853000009723,659763,001,2024-09-12_21h33.42.024,AdaptiveStaircaseProcedure,2024.1.5,None,2024-09-12 21h33.47.693455 +0530,
137,0.5,4.5,154.44483820000096,,154.4315872999996,154.44483820000096,154.94508450000103,154.94508450000103,154.94508450000103,155.24460680000084,155.4978153000011,left,-4.5,0,0,0.5429003999997803,659763,001,2024-09-12_21h33.42.024,AdaptiveStaircaseProcedure,2024.1.5,None,2024-09-12 21h33.47.693455 +0530,
138,0.5,5.0,155.52056220000122,,155.49797560000115,155.52056220000122,156.01199559999986,156.01199559999986,156.02757750000092,156.3268508000001,156.8796886,left,-5.0,1,1,0.8576461000011477,659763,001,2024-09-12_21h33.42.024,AdaptiveStaircaseProcedure,2024.1.5,None,2024-09-12 21h33.47.693455 +0530,
139,0.5,5.0,156.9025075999998,,156.87989150000067,156.9025075999998,157.39425610000035,157.39425610000035,157.40900619999957,157.7088788000001,158.14341109999987,left,-5.0,1,1,0.7382440999990649,659763,001,2024-09-12_21h33.42.024,AdaptiveStaircaseProcedure,2024.1.5,None,2024-09-12 21h33.47.693455 +0530,
140,0.5,5.0,158.15947600000072,,158.1435431000009,158.15947600000072,158.64133440000114,158.64133440000114,158.6750462,158.9408287999995,159.24320819999957,left,-5.0,1,1,0.5999826000006578,659763,001,2024-09-12_21h33.42.024,AdaptiveStaircaseProcedure,2024.1.5,None,2024-09-12 21h33.47.693455 +0530,
141,0.5,4.5,159.25858570000128,,159.24342460000116,159.25858570000128,159.75787479999963,159.75787479999963,159.7737429000008,160.0732012999997,160.16065069999968,right,4.5,0,0,0.3999316999997973,659763,001,2024-09-12_21h33.42.024,AdaptiveStaircaseProcedure,2024.1.5,None,2024-09-12 21h33.47.693455 +0530,
142,0.5,5.0,160.18340800000078,,160.1607980000008,160.18340800000078,160.67380720000074,160.67380720000074,160.6893527000011,160.98871959999997,161.2752744999998,right,5.0,1,1,0.594217200001367,659763,001,2024-09-12_21h33.42.024,AdaptiveStaircaseProcedure,2024.1.5,None,2024-09-12 21h33.47.693455 +0530,
143,0.5,5.0,161.28902800000105,,161.27540369999952,161.28902800000105,161.78844910000043,161.78844910000043,161.80439320000005,162.08890390000124,162.49007340000026,right,5.0,1,1,0.6919726000014634,659763,001,2024-09-12_21h33.42.024,AdaptiveStaircaseProcedure,2024.1.5,None,2024-09-12 21h33.47.693455 +0530,
144,0.5,5.0,162.50387840000076,,162.49020689999998,162.50387840000076,163.00554589999956,163.00554589999956,163.00554589999956,163.30348460000096,163.52355660000103,left,-5.0,1,1,0.5134419999994861,659763,001,2024-09-12_21h33.42.024,AdaptiveStaircaseProcedure,2024.1.5,None,2024-09-12 21h33.47.693455 +0530,
145,0.5,4.5,163.5370937000007,,163.5237004999999,163.5370937000007,164.03635700000086,164.03635700000086,164.03635700000086,164.33623249999982,164.688666,left,-4.5,1,1,0.6395885000001726,659763,001,2024-09-12_21h33.42.024,AdaptiveStaircaseProcedure,2024.1.5,None,2024-09-12 21h33.47.693455 +0530,
146,0.5,4.5,164.70240449999983,,164.68879840000045,164.70240449999983,165.20237330000054,165.20237330000054,165.20237330000054,165.50130340000032,166.43786519999958,left,-4.5,1,1,1.2289013999998133,659763,001,2024-09-12_21h33.42.024,AdaptiveStaircaseProcedure,2024.1.5,None,2024-09-12 21h33.47.693455 +0530,
147,0.5,4.5,166.46037100000103,,166.4379974000003,166.46037100000103,166.9511835000012,166.9511835000012,166.9669457,167.26669930000025,167.53405510000084,left,-4.5,1,1,0.574209599999449,659763,001,2024-09-12_21h33.42.024,AdaptiveStaircaseProcedure,2024.1.5,None,2024-09-12 21h33.47.693455 +0530,
148,0.5,4.0,167.55023129999972,,167.5342240000009,167.55023129999972,168.0323595000009,168.0323595000009,168.0658841000004,168.3323203,168.38514320000104,right,4.0,0,0,0.34302630000092904,659763,001,2024-09-12_21h33.42.024,AdaptiveStaircaseProcedure,2024.1.5,None,2024-09-12 21h33.47.693455 +0530,
149,0.5,4.5,168.3989973000007,,168.3852870999999,168.3989973000007,168.89854039999955,168.89854039999955,168.89854039999955,169.1983579000007,169.5993252999997,left,-4.5,1,1,0.6866414999985864,659763,001,2024-09-12_21h33.42.024,AdaptiveStaircaseProcedure,2024.1.5,None,2024-09-12 21h33.47.693455 +0530,
