stair.thisTrialN,stair.stepSize,stair.intensity,thisRow.t,notes,trial.started,fixation.started,grating.started,key_resp.started,fixation.stopped,grating.stopped,trial.stopped,corrAns,tilt,key_resp.corr,stair.response,key_resp.rt,participant,session,date,expName,psychopyVersion,frameRate,expStart,
0,2,20.0,0.0422000999096781,,0.017849199939519167,0.0422000999096781,0.5518403998576105,0.5518403998576105,0.5750896998215467,0.8552015000022948,1.637085999827832,left,-20.0,1,1,0.9320825000759214,134211,001,2024-09-10_18h16.03.644,AdaptiveStaircaseProcedure,2024.1.5,None,2024-09-10 18h16.09.658444 +0530,
1,2,18.0,1.6495850998908281,,1.6373025998473167,1.6495850998908281,2.138614699942991,2.138614699942991,2.156561399810016,2.438088599825278,2.7403162999544293,left,-18.0,1,1,0.5990546999964863,134211,001,2024-09-10_18h16.03.644,AdaptiveStaircaseProcedure,2024.1.5,None,2024-09-10 18h16.09.658444 +0530,
2,2,16.0,2.7555393998045474,,2.740464999806136,2.7555393998045474,3.2552755000069737,3.2552755000069737,3.2709396998398006,3.5555516998283565,3.740040799835697,right,16.0,1,1,0.4734328000340611,134211,001,2024-09-10_18h16.03.644,AdaptiveStaircaseProcedure,2024.1.5,None,2024-09-10 18h16.09.658444 +0530,
3,2,14.0,3.753430699929595,,3.7401803999673575,3.753430699929595,4.252522399881855,4.252522399881855,4.252522399881855,4.552632699953392,4.70635429979302,left,-14.0,1,1,0.45171259995549917,134211,001,2024-09-10_18h16.03.644,AdaptiveStaircaseProcedure,2024.1.5,None,2024-09-10 18h16.09.658444 +0530,
4,2,12.0,4.730857299873605,,4.706575699849054,4.730857299873605,5.219586399849504,5.219586399849504,5.237163899932057,5.518543899990618,5.755175899947062,right,12.0,1,1,0.5268841998185962,134211,001,2024-09-10_18h16.03.644,AdaptiveStaircaseProcedure,2024.1.5,None,2024-09-10 18h16.09.658444 +0530,
5,2,10.0,5.770075399894267,,5.755322899902239,5.770075399894267,6.269176899921149,6.269176899921149,6.285942699993029,6.585206699790433,6.637679299805313,left,-10.0,1,1,0.35033789998851717,134211,001,2024-09-10_18h16.03.644,AdaptiveStaircaseProcedure,2024.1.5,None,2024-09-10 18h16.09.658444 +0530,
6,2,8.0,6.650957399979234,,6.637815099908039,6.650957399979234,7.151403700001538,7.151403700001538,7.151403700001538,7.450561699923128,7.536929199937731,left,-8.0,1,1,0.3660958001855761,134211,001,2024-09-10_18h16.03.644,AdaptiveStaircaseProcedure,2024.1.5,None,2024-09-10 18h16.09.658444 +0530,
7,2,6.0,7.550295299850404,,7.537072099978104,7.550295299850404,8.048924200003967,8.048924200003967,8.048924200003967,8.349910699995235,8.48449009982869,right,6.0,1,1,0.4303641999140382,134211,001,2024-09-10_18h16.03.644,AdaptiveStaircaseProcedure,2024.1.5,None,2024-09-10 18h16.09.658444 +0530,
8,2,4.0,8.500352900009602,,8.484624799806625,8.500352900009602,8.999842799967155,8.999842799967155,9.015421599848196,9.31542139989324,9.368583699921146,left,-4.0,1,1,0.34948750003241,134211,001,2024-09-10_18h16.03.644,AdaptiveStaircaseProcedure,2024.1.5,None,2024-09-10 18h16.09.658444 +0530,
9,2,2.0,9.381854299921542,,9.368760499870405,9.381854299921542,9.881385399959981,9.881385399959981,9.881385399959981,10.180871599819511,10.2674463998992,left,-2.0,1,1,0.37712029996328056,134211,001,2024-09-10_18h16.03.644,AdaptiveStaircaseProcedure,2024.1.5,None,2024-09-10 18h16.09.658444 +0530,
10,2,1.0,10.290873099816963,,10.267593499971554,10.290873099816963,10.781443799845874,10.781443799845874,10.797155799809843,11.096987099852413,11.216348699992523,left,-1.0,1,1,0.4322959999553859,134211,001,2024-09-10_18h16.03.644,AdaptiveStaircaseProcedure,2024.1.5,None,2024-09-10 18h16.09.658444 +0530,
11,1,1.0,11.230029399972409,,11.216503999894485,11.230029399972409,11.728878099936992,11.728878099936992,11.728878099936992,12.02935229986906,12.064391699852422,right,1.0,0,0,0.3224572998005897,134211,001,2024-09-10_18h16.03.644,AdaptiveStaircaseProcedure,2024.1.5,None,2024-09-10 18h16.09.658444 +0530,
12,1,2.0,12.080840499838814,,12.064533500000834,12.080840499838814,12.579808000009507,12.579808000009507,12.59533689985983,12.894864699803293,13.296708999900147,left,-2.0,1,1,0.7026533999014646,134211,001,2024-09-10_18h16.03.644,AdaptiveStaircaseProcedure,2024.1.5,None,2024-09-10 18h16.09.658444 +0530,
13,1,2.0,13.31281129992567,,13.296851099934429,13.31281129992567,13.812695699976757,13.812695699976757,13.828484899830073,14.127262299880385,14.279632199788466,right,2.0,1,1,0.45118460012599826,134211,001,2024-09-10_18h16.03.644,AdaptiveStaircaseProcedure,2024.1.5,None,2024-09-10 18h16.09.658444 +0530,
14,1,2.0,14.29344299994409,,14.279770499793813,14.29344299994409,14.793906199978665,14.793906199978665,14.793906199978665,15.09286560001783,15.280640400014818,right,2.0,1,1,0.4840385001152754,134211,001,2024-09-10_18h16.03.644,AdaptiveStaircaseProcedure,2024.1.5,None,2024-09-10 18h16.09.658444 +0530,
15,1,1.0,15.303479800000787,,15.280799499945715,15.303479800000787,15.793352199951187,15.793352199951187,15.808820799924433,16.108845099806786,16.427046899916604,left,-1.0,1,1,0.629818000132218,134211,001,2024-09-10_18h16.03.644,AdaptiveStaircaseProcedure,2024.1.5,None,2024-09-10 18h16.09.658444 +0530,
16,1,1.0,16.44339819997549,,16.42718319990672,16.44339819997549,16.94142879988067,16.94142879988067,16.959236899856478,17.2406342998147,17.34396560001187,left,-1.0,1,1,0.3972365998197347,134211,001,2024-09-10_18h16.03.644,AdaptiveStaircaseProcedure,2024.1.5,None,2024-09-10 18h16.09.658444 +0530,
17,0.5,1.0,17.36778249987401,,17.344159899977967,17.36778249987401,17.85807659989223,17.85807659989223,17.87464389996603,18.158251999877393,18.263442599913105,right,1.0,0,0,0.3935566998552531,134211,001,2024-09-10_18h16.03.644,AdaptiveStaircaseProcedure,2024.1.5,None,2024-09-10 18h16.09.658444 +0530,
18,0.5,1.5,18.283741799881682,,18.263599099824205,18.283741799881682,18.775372199947014,18.775372199947014,18.78994289995171,19.087864500004798,19.3245004999917,right,1.5,1,1,0.5473815000150353,134211,001,2024-09-10_18h16.03.644,AdaptiveStaircaseProcedure,2024.1.5,None,2024-09-10 18h16.09.658444 +0530,
19,0.5,1.5,19.33976549981162,,19.324633499840274,19.33976549981162,19.840339799877256,19.840339799877256,19.840339799877256,20.157879799837247,20.308316699927673,left,-1.5,1,1,0.4633392000105232,134211,001,2024-09-10_18h16.03.644,AdaptiveStaircaseProcedure,2024.1.5,None,2024-09-10 18h16.09.658444 +0530,
20,0.5,1.5,20.332089399918914,,20.30845409980975,20.332089399918914,20.822467799996957,20.822467799996957,20.837339099962264,21.13750429986976,21.356169399805367,right,1.5,1,1,0.5224764999002218,134211,001,2024-09-10_18h16.03.644,AdaptiveStaircaseProcedure,2024.1.5,None,2024-09-10 18h16.09.658444 +0530,
21,0.5,1.0,21.370533799985424,,21.356314899865538,21.370533799985424,21.87033830001019,21.87033830001019,21.87033830001019,22.169872500002384,22.488538099918514,left,-1.0,1,1,0.6138657000847161,134211,001,2024-09-10_18h16.03.644,AdaptiveStaircaseProcedure,2024.1.5,None,2024-09-10 18h16.09.658444 +0530,
22,0.5,1.0,22.502399099990726,,22.48867639992386,22.502399099990726,23.00246989983134,23.00246989983134,23.00246989983134,23.301978699862957,23.520679999841377,left,-1.0,1,1,0.5135803001467139,134211,001,2024-09-10_18h16.03.644,AdaptiveStaircaseProcedure,2024.1.5,None,2024-09-10 18h16.09.658444 +0530,
23,0.5,1.0,23.53530259989202,,23.52081559994258,23.53530259989202,24.035847899969667,24.035847899969667,24.035847899969667,24.33399339998141,24.368769699940458,right,1.0,0,0,0.3237354001030326,134211,001,2024-09-10_18h16.03.644,AdaptiveStaircaseProcedure,2024.1.5,None,2024-09-10 18h16.09.658444 +0530,
24,0.5,1.5,24.385994999902323,,24.36891119997017,24.385994999902323,24.86718689999543,24.86718689999543,24.91787299979478,25.16682959999889,25.353428999893367,right,1.5,1,1,0.4839151999913156,134211,001,2024-09-10_18h16.03.644,AdaptiveStaircaseProcedure,2024.1.5,None,2024-09-10 18h16.09.658444 +0530,
25,0.5,1.5,25.36700169998221,,25.35357609996572,25.36700169998221,25.867323299869895,25.867323299869895,25.867323299869895,26.1671138999518,26.23631910001859,right,1.5,1,1,0.367205300135538,134211,001,2024-09-10_18h16.03.644,AdaptiveStaircaseProcedure,2024.1.5,None,2024-09-10 18h16.09.658444 +0530,
26,0.5,1.5,26.26033809990622,,26.23647949984297,26.26033809990622,26.749894900014624,26.749894900014624,26.765474899904802,27.06509039993398,27.13311369996518,left,-1.5,1,1,0.3723615000490099,134211,001,2024-09-10_18h16.03.644,AdaptiveStaircaseProcedure,2024.1.5,None,2024-09-10 18h16.09.658444 +0530,
27,0.5,1.0,27.150272500002757,,27.133287800010294,27.150272500002757,27.64788750000298,27.64788750000298,27.66621719999239,27.947389399865642,28.049997499911115,left,-1.0,1,1,0.3952846999745816,134211,001,2024-09-10_18h16.03.644,AdaptiveStaircaseProcedure,2024.1.5,None,2024-09-10 18h16.09.658444 +0530,
28,0.5,1.0,28.065435800002888,,28.05022510001436,28.065435800002888,28.563487599836662,28.563487599836662,28.563487599836662,28.86345149995759,28.982980199856684,right,1.0,1,1,0.40498000010848045,134211,001,2024-09-10_18h16.03.644,AdaptiveStaircaseProcedure,2024.1.5,None,2024-09-10 18h16.09.658444 +0530,
29,0.5,1.0,28.996576000005007,,28.983118299860507,28.996576000005007,29.497667799936607,29.497667799936607,29.497667799936607,29.796182699967176,29.931811399990693,right,1.0,1,1,0.4246082999743521,134211,001,2024-09-10_18h16.03.644,AdaptiveStaircaseProcedure,2024.1.5,None,2024-09-10 18h16.09.658444 +0530,
30,0.5,1.0,29.947209199890494,,29.9319577999413,29.947209199890494,30.447259499924257,30.447259499924257,30.46213399991393,30.761593399802223,30.830795199843124,left,-1.0,1,1,0.378135500010103,134211,001,2024-09-10_18h16.03.644,AdaptiveStaircaseProcedure,2024.1.5,None,2024-09-10 18h16.09.658444 +0530,
31,0.5,1.0,30.845900899963453,,30.830929999938235,30.845900899963453,31.343180799856782,31.343180799856782,31.358874999918044,31.658914599800482,31.745322600007057,left,-1.0,0,0,0.39980879984796047,134211,001,2024-09-10_18h16.03.644,AdaptiveStaircaseProcedure,2024.1.5,None,2024-09-10 18h16.09.658444 +0530,
32,0.5,1.5,31.7587407999672,,31.745422799838707,31.7587407999672,32.258793799905106,32.258793799905106,32.258793799905106,32.560584399849176,32.91319349990226,right,1.5,1,1,0.6503348001278937,134211,001,2024-09-10_18h16.03.644,AdaptiveStaircaseProcedure,2024.1.5,None,2024-09-10 18h16.09.658444 +0530,
33,0.5,1.5,32.93736229999922,,32.91333369980566,32.93736229999922,33.427304999902844,33.427304999902844,33.44273479981348,33.74193239980377,33.86234919982962,left,-1.5,1,1,0.42916539986617863,134211,001,2024-09-10_18h16.03.644,AdaptiveStaircaseProcedure,2024.1.5,None,2024-09-10 18h16.09.658444 +0530,
34,0.5,1.5,33.88627259992063,,33.86248349980451,33.88627259992063,34.37820289982483,34.37820289982483,34.39163059997372,34.69149489980191,34.77703949995339,left,-1.5,1,1,0.39122699992731214,134211,001,2024-09-10_18h16.03.644,AdaptiveStaircaseProcedure,2024.1.5,None,2024-09-10 18h16.09.658444 +0530,
35,0.5,1.0,34.79106439999305,,34.77718529989943,34.79106439999305,35.29097600001842,35.29097600001842,35.29097600001842,35.59037759993225,35.69295339984819,left,-1.0,1,1,0.39270150009542704,134211,001,2024-09-10_18h16.03.644,AdaptiveStaircaseProcedure,2024.1.5,None,2024-09-10 18h16.09.658444 +0530,
36,0.5,1.0,35.70827279984951,,35.693099699914455,35.70827279984951,36.209573099855334,36.209573099855334,36.22301379987039,36.522534099873155,36.79175759991631,right,1.0,1,1,0.5799763000104576,134211,001,2024-09-10_18h16.03.644,AdaptiveStaircaseProcedure,2024.1.5,None,2024-09-10 18h16.09.658444 +0530,
37,0.5,1.0,36.807282799854875,,36.791953899897635,36.807282799854875,37.30747479991987,37.30747479991987,37.32238179980777,37.62250309996307,37.84138589981012,right,1.0,1,1,0.5296789000276476,134211,001,2024-09-10_18h16.03.644,AdaptiveStaircaseProcedure,2024.1.5,None,2024-09-10 18h16.09.658444 +0530,
38,0.5,1.0,37.85494009987451,,37.84152119979262,37.85494009987451,38.35454809991643,38.35454809991643,38.35454809991643,38.67190009984188,38.856529499869794,right,1.0,1,1,0.49109079991467297,134211,001,2024-09-10_18h16.03.644,AdaptiveStaircaseProcedure,2024.1.5,None,2024-09-10 18h16.09.658444 +0530,
39,0.5,1.0,38.87181379995309,,38.856670500012115,38.87181379995309,39.36811159993522,39.36811159993522,39.385834199842066,39.66801999998279,39.86930079990998,left,-1.0,1,1,0.4988790999632329,134211,001,2024-09-10_18h16.03.644,AdaptiveStaircaseProcedure,2024.1.5,None,2024-09-10 18h16.09.658444 +0530,
40,0.5,1.0,39.88496679998934,,39.86942719994113,39.88496679998934,40.384952399879694,40.384952399879694,40.40045449999161,40.70001549995504,40.922543299850076,right,1.0,1,1,0.5287017000373453,134211,001,2024-09-10_18h16.03.644,AdaptiveStaircaseProcedure,2024.1.5,None,2024-09-10 18h16.09.658444 +0530,
41,0.5,1.0,40.94581669988111,,40.92268419987522,40.94581669988111,41.43619369994849,41.43619369994849,41.45164609979838,41.75121149979532,41.93717039981857,right,1.0,1,1,0.48213459993712604,134211,001,2024-09-10_18h16.03.644,AdaptiveStaircaseProcedure,2024.1.5,None,2024-09-10 18h16.09.658444 +0530,
42,0.5,1.0,41.95135629992001,,41.937307899817824,41.95135629992001,42.45072799990885,42.45072799990885,42.45072799990885,42.750201399903744,43.08608899987303,right,1.0,1,1,0.62723010010086,134211,001,2024-09-10_18h16.03.644,AdaptiveStaircaseProcedure,2024.1.5,None,2024-09-10 18h16.09.658444 +0530,
43,0.5,1.0,43.10114169982262,,43.08625629986636,43.10114169982262,43.60085439984687,43.60085439984687,43.61657589999959,43.91547639993951,43.951410699868575,left,-1.0,1,1,0.34004759998060763,134211,001,2024-09-10_18h16.03.644,AdaptiveStaircaseProcedure,2024.1.5,None,2024-09-10 18h16.09.658444 +0530,
44,0.5,1.0,43.96797729982063,,43.951555099803954,43.96797729982063,44.46481529995799,44.46481529995799,44.480280000017956,44.76658930000849,44.93530729995109,left,-1.0,1,1,0.4633885999210179,134211,001,2024-09-10_18h16.03.644,AdaptiveStaircaseProcedure,2024.1.5,None,2024-09-10 18h16.09.658444 +0530,
45,0.5,1.0,44.95855759992264,,44.93548079999164,44.95855759992264,45.44875209988095,45.44875209988095,45.46527259983122,45.74922569980845,46.033486399799585,left,-1.0,1,1,0.574244299903512,134211,001,2024-09-10_18h16.03.644,AdaptiveStaircaseProcedure,2024.1.5,None,2024-09-10 18h16.09.658444 +0530,
46,0.5,1.0,46.04939069994725,,46.033628199948,46.04939069994725,46.54821499995887,46.54821499995887,46.5633578998968,46.86325469985604,47.0322294998914,right,1.0,1,1,0.4818684000056237,134211,001,2024-09-10_18h16.03.644,AdaptiveStaircaseProcedure,2024.1.5,None,2024-09-10 18h16.09.658444 +0530,
47,0.5,1.0,47.04738529981114,,47.03237109980546,47.04738529981114,47.54764849995263,47.54764849995263,47.56324169994332,47.86248439992778,47.964916799915954,left,-1.0,1,1,0.414961899863556,134211,001,2024-09-10_18h16.03.644,AdaptiveStaircaseProcedure,2024.1.5,None,2024-09-10 18h16.09.658444 +0530,
48,0.5,1.0,47.980135599849746,,47.96505689993501,47.980135599849746,48.4794622999616,48.4794622999616,48.49731020000763,48.77975629991852,49.08149759983644,left,-1.0,1,1,0.5839750999584794,134211,001,2024-09-10_18h16.03.644,AdaptiveStaircaseProcedure,2024.1.5,None,2024-09-10 18h16.09.658444 +0530,
49,0.5,1.0,49.10614259983413,,49.08166869985871,49.10614259983413,49.59593559987843,49.59593559987843,49.611088699894026,49.89755190000869,50.016226099804044,left,-1.0,1,1,0.41182309994474053,134211,001,2024-09-10_18h16.03.644,AdaptiveStaircaseProcedure,2024.1.5,None,2024-09-10 18h16.09.658444 +0530,
50,0.5,1.0,50.037059699883685,,50.01636100001633,50.037059699883685,50.52446599979885,50.52446599979885,50.544917199993506,50.82700839987956,50.89421850000508,left,-1.0,1,1,0.35842749988660216,134211,001,2024-09-10_18h16.03.644,AdaptiveStaircaseProcedure,2024.1.5,None,2024-09-10 18h16.09.658444 +0530,
51,0.5,1.0,50.91086729988456,,50.894361099926755,50.91086729988456,51.41048899991438,51.41048899991438,51.42610549996607,51.72532489988953,51.76116779982112,left,-1.0,1,1,0.34323600004427135,134211,001,2024-09-10_18h16.03.644,AdaptiveStaircaseProcedure,2024.1.5,None,2024-09-10 18h16.09.658444 +0530,
52,0.5,1.0,51.77681199996732,,51.76131079997867,51.77681199996732,52.27556280000135,52.27556280000135,52.29111390002072,52.59101889980957,52.81201609992422,right,1.0,1,1,0.5220283998642117,134211,001,2024-09-10_18h16.03.644,AdaptiveStaircaseProcedure,2024.1.5,None,2024-09-10 18h16.09.658444 +0530,
53,0.5,1.0,52.835094899870455,,52.8121581999585,52.835094899870455,53.32488349988125,53.32488349988125,53.340511499904096,53.640037999954075,53.75973129994236,left,-1.0,1,1,0.4249763998668641,134211,001,2024-09-10_18h16.03.644,AdaptiveStaircaseProcedure,2024.1.5,None,2024-09-10 18h16.09.658444 +0530,
54,0.5,1.0,53.773956099990755,,53.75987059995532,53.773956099990755,54.273009199881926,54.273009199881926,54.273009199881926,54.57319789985195,54.759726099902764,left,-1.0,1,1,0.48025049990974367,134211,001,2024-09-10_18h16.03.644,AdaptiveStaircaseProcedure,2024.1.5,None,2024-09-10 18h16.09.658444 +0530,
55,0.5,1.0,54.78353149979375,,54.759865099797025,54.78353149979375,55.273941999999806,55.273941999999806,55.289090799866244,55.57212309981696,55.65970919979736,right,1.0,0,0,0.3759268999565393,134211,001,2024-09-10_18h16.03.644,AdaptiveStaircaseProcedure,2024.1.5,None,2024-09-10 18h16.09.658444 +0530,
56,0.5,1.5,55.68295589997433,,55.65985589986667,55.68295589997433,56.17135540000163,56.17135540000163,56.18806909979321,56.47248739982024,56.57444569980726,left,-1.5,1,1,0.39273019996471703,134211,001,2024-09-10_18h16.03.644,AdaptiveStaircaseProcedure,2024.1.5,None,2024-09-10 18h16.09.658444 +0530,
57,0.5,1.5,56.587212699931115,,56.5745868999511,56.587212699931115,57.08831159980036,57.08831159980036,57.08831159980036,57.4039208998438,57.60523569979705,left,-1.5,1,1,0.5013814000412822,134211,001,2024-09-10_18h16.03.644,AdaptiveStaircaseProcedure,2024.1.5,None,2024-09-10 18h16.09.658444 +0530,
58,0.5,1.5,57.62090129987337,,57.60540260002017,57.62090129987337,58.121205899864435,58.121205899864435,58.13591199996881,58.42024719994515,58.705729899927974,right,1.5,1,1,0.580276699969545,134211,001,2024-09-10_18h16.03.644,AdaptiveStaircaseProcedure,2024.1.5,None,2024-09-10 18h16.09.658444 +0530,
59,0.5,1.0,58.72958319983445,,58.70593259995803,58.72958319983445,59.219428199809045,59.219428199809045,59.23434989992529,59.51818139990792,59.73783169989474,left,-1.0,1,1,0.5105486998800188,134211,001,2024-09-10_18h16.03.644,AdaptiveStaircaseProcedure,2024.1.5,None,2024-09-10 18h16.09.658444 +0530,
60,0.5,1.0,59.75127729983069,,59.73797030001879,59.75127729983069,60.259578299941495,60.259578299941495,60.259578299941495,60.568839099956676,60.75311699998565,right,1.0,1,1,0.48309919983148575,134211,001,2024-09-10_18h16.03.644,AdaptiveStaircaseProcedure,2024.1.5,None,2024-09-10 18h16.09.658444 +0530,
61,0.5,1.0,60.766864199889824,,60.753305999794975,60.766864199889824,61.268295699963346,61.268295699963346,61.268295699963346,61.582504699938,61.81802909984253,left,-1.0,1,1,0.5370076999533921,134211,001,2024-09-10_18h16.03.644,AdaptiveStaircaseProcedure,2024.1.5,None,2024-09-10 18h16.09.658444 +0530,
62,0.5,1.0,61.833904600003734,,61.81817099987529,61.833904600003734,62.33313369983807,62.33313369983807,62.34781239996664,62.633320699911565,62.91335909999907,left,-1.0,1,1,0.5684814001433551,134211,001,2024-09-10_18h16.03.644,AdaptiveStaircaseProcedure,2024.1.5,None,2024-09-10 18h16.09.658444 +0530,
63,0.5,1.0,62.93034839979373,,62.91344409994781,62.93034839979373,63.41165259992704,63.41165259992704,63.44518609996885,63.71092559979297,63.98230259981938,right,1.0,1,1,0.5678574000485241,134211,001,2024-09-10_18h16.03.644,AdaptiveStaircaseProcedure,2024.1.5,None,2024-09-10 18h16.09.658444 +0530,
64,0.5,1.0,63.99823969998397,,63.98243799991906,63.99823969998397,64.49784499988891,64.49784499988891,64.51299600000493,64.81312739988789,65.13007099996321,right,1.0,1,1,0.6269224998541176,134211,001,2024-09-10_18h16.03.644,AdaptiveStaircaseProcedure,2024.1.5,None,2024-09-10 18h16.09.658444 +0530,
65,0.5,1.0,65.1436842000112,,65.13016789988615,65.1436842000112,65.63027159986086,65.63027159986086,65.64613179978915,65.9453288000077,66.24724099994637,right,1.0,1,1,0.6030512000434101,134211,001,2024-09-10_18h16.03.644,AdaptiveStaircaseProcedure,2024.1.5,None,2024-09-10 18h16.09.658444 +0530,
66,0.5,1.0,66.26214969996363,,66.24738369998522,66.26214969996363,66.7628068998456,66.7628068998456,66.7628068998456,67.07757689990103,67.26410269993357,left,-1.0,1,1,0.4908015001565218,134211,001,2024-09-10_18h16.03.644,AdaptiveStaircaseProcedure,2024.1.5,None,2024-09-10 18h16.09.658444 +0530,
67,0.5,1.0,67.27752489992417,,67.26424299995415,67.27752489992417,67.77839649980888,67.77839649980888,67.77839649980888,68.07758509996347,68.36158129991964,left,-1.0,1,1,0.5705220000818372,134211,001,2024-09-10_18h16.03.644,AdaptiveStaircaseProcedure,2024.1.5,None,2024-09-10 18h16.09.658444 +0530,
68,0.5,1.0,68.3782445997931,,68.36171690002084,68.3782445997931,68.85992720001377,68.85992720001377,68.892927599838,69.15905769984238,69.54506299993955,left,-1.0,1,1,0.6717730001546443,134211,001,2024-09-10_18h16.03.644,AdaptiveStaircaseProcedure,2024.1.5,None,2024-09-10 18h16.09.658444 +0530,
69,0.5,1.0,69.5587494999636,,69.54519969993271,69.5587494999636,70.06000870000571,70.06000870000571,70.06000870000571,70.37562299985439,70.67594679980539,right,1.0,1,1,0.6046450999565423,134211,001,2024-09-10_18h16.03.644,AdaptiveStaircaseProcedure,2024.1.5,None,2024-09-10 18h16.09.658444 +0530,
70,0.5,1.0,70.69279649993405,,70.67609329987317,70.69279649993405,71.19034589990042,71.19034589990042,71.19034589990042,71.4915002998896,71.75897889980115,left,-1.0,1,1,0.5668210000731051,134211,001,2024-09-10_18h16.03.644,AdaptiveStaircaseProcedure,2024.1.5,None,2024-09-10 18h16.09.658444 +0530,
71,0.5,1.0,71.77459669997916,,71.75911989994347,71.77459669997916,72.27262659999542,72.27262659999542,72.28930859989487,72.5880108999554,72.62325880001299,left,-1.0,0,0,0.347581900190562,134211,001,2024-09-10_18h16.03.644,AdaptiveStaircaseProcedure,2024.1.5,None,2024-09-10 18h16.09.658444 +0530,
72,0.5,1.5,72.63655279995874,,72.62338269990869,72.63655279995874,73.13696379982866,73.13696379982866,73.13696379982866,73.45301629998721,73.85351669997908,left,-1.5,1,1,0.7155286998022348,134211,001,2024-09-10_18h16.03.644,AdaptiveStaircaseProcedure,2024.1.5,None,2024-09-10 18h16.09.658444 +0530,
73,0.5,1.5,73.86853949981742,,73.85358049999923,73.86853949981742,74.36773639987223,74.36773639987223,74.36773639987223,74.66805099998601,74.91946789994836,left,-1.5,1,1,0.5413758000358939,134211,001,2024-09-10_18h16.03.644,AdaptiveStaircaseProcedure,2024.1.5,None,2024-09-10 18h16.09.658444 +0530,
74,0.5,1.5,74.93452169978991,,74.91955039999448,74.93452169978991,75.43370709987357,75.43370709987357,75.45115749980323,75.73647899995558,75.82160829985514,left,-1.5,1,1,0.3845216000918299,134211,001,2024-09-10_18h16.03.644,AdaptiveStaircaseProcedure,2024.1.5,None,2024-09-10 18h16.09.658444 +0530,
75,0.5,1.0,75.83671519998461,,75.82173460000195,75.83671519998461,76.3370592999272,76.3370592999272,76.3370592999272,76.64888459979557,76.89945789985359,right,1.0,1,1,0.5517957999836653,134211,001,2024-09-10_18h16.03.644,AdaptiveStaircaseProcedure,2024.1.5,None,2024-09-10 18h16.09.658444 +0530,
76,0.5,1.0,76.91644399985671,,76.89953349996358,76.91644399985671,77.40054779988714,77.40054779988714,77.41850699996576,77.7004595999606,77.9884136999026,left,-1.0,1,1,0.5777622000314295,134211,001,2024-09-10_18h16.03.644,AdaptiveStaircaseProcedure,2024.1.5,None,2024-09-10 18h16.09.658444 +0530,
77,0.5,1.0,78.01179099990986,,77.98855709983036,78.01179099990986,78.5005649998784,78.5005649998784,78.51665499992669,78.80104419984855,79.1852535000071,left,-1.0,1,1,0.6721793001051992,134211,001,2024-09-10_18h16.03.644,AdaptiveStaircaseProcedure,2024.1.5,None,2024-09-10 18h16.09.658444 +0530,
78,0.5,1.0,79.20085209980607,,79.18546639988199,79.20085209980607,79.70038449997082,79.70038449997082,79.70038449997082,80.0176261998713,80.21789799979888,right,1.0,1,1,0.5009696001652628,134211,001,2024-09-10_18h16.03.644,AdaptiveStaircaseProcedure,2024.1.5,None,2024-09-10 18h16.09.658444 +0530,
79,0.5,1.0,80.23337809997611,,80.21804119995795,80.23337809997611,80.7335149999708,80.7335149999708,80.74882849981077,81.0483074998483,81.28257469995879,left,-1.0,1,1,0.5347627999726683,134211,001,2024-09-10_18h16.03.644,AdaptiveStaircaseProcedure,2024.1.5,None,2024-09-10 18h16.09.658444 +0530,
80,0.5,1.0,81.29934699996375,,81.28271379997022,81.29934699996375,81.7809130998794,81.7809130998794,81.81351589993574,82.07981769996695,82.18160100001842,right,1.0,0,0,0.3897881000302732,134211,001,2024-09-10_18h16.03.644,AdaptiveStaircaseProcedure,2024.1.5,None,2024-09-10 18h16.09.658444 +0530,
81,0.5,1.5,82.19787369994447,,82.18174749985337,82.19787369994447,82.69836869998835,82.69836869998835,82.69836869998835,82.99589939997531,83.28332329983823,right,1.5,1,1,0.5752032001037151,134211,001,2024-09-10_18h16.03.644,AdaptiveStaircaseProcedure,2024.1.5,None,2024-09-10 18h16.09.658444 +0530,
82,0.5,1.5,83.30661379988305,,83.28346019983292,83.30661379988305,83.79647659999318,83.79647659999318,83.81205349997617,84.11196130001917,84.24301089998335,right,1.5,1,1,0.4398293001577258,134211,001,2024-09-10_18h16.03.644,AdaptiveStaircaseProcedure,2024.1.5,None,2024-09-10 18h16.09.658444 +0530,
83,0.5,1.5,84.26283489982598,,84.24320599995553,84.26283489982598,84.7439974998124,84.7439974998124,84.77774990000762,85.04417559993453,85.3466450998094,right,1.5,1,1,0.5950143001973629,134211,001,2024-09-10_18h16.03.644,AdaptiveStaircaseProcedure,2024.1.5,None,2024-09-10 18h16.09.658444 +0530,
84,0.5,1.0,85.36205039988272,,85.34680929989554,85.36205039988272,85.86180810001679,85.86180810001679,85.86180810001679,86.17653289996088,86.37877269997261,right,1.0,1,1,0.5057637998834252,134211,001,2024-09-10_18h16.03.644,AdaptiveStaircaseProcedure,2024.1.5,None,2024-09-10 18h16.09.658444 +0530,
85,0.5,1.0,86.39397209999152,,86.37891049985774,86.39397209999152,86.89384759985842,86.89384759985842,86.90893939998932,87.19338189996779,87.395381399896,right,1.0,1,1,0.4826971001457423,134211,001,2024-09-10_18h16.03.644,AdaptiveStaircaseProcedure,2024.1.5,None,2024-09-10 18h16.09.658444 +0530,
86,0.5,1.0,87.40947949979454,,87.39552209991962,87.40947949979454,87.90792879997753,87.90792879997753,87.90792879997753,88.22593740001321,88.41064759995788,left,-1.0,1,1,0.49608769989572465,134211,001,2024-09-10_18h16.03.644,AdaptiveStaircaseProcedure,2024.1.5,None,2024-09-10 18h16.09.658444 +0530,
87,0.5,1.0,88.42608839995228,,88.41088419989683,88.42608839995228,88.92450720001943,88.92450720001943,88.94038799987175,89.24053870001808,89.39383349986747,right,1.0,1,1,0.4645407001953572,134211,001,2024-09-10_18h16.03.644,AdaptiveStaircaseProcedure,2024.1.5,None,2024-09-10 18h16.09.658444 +0530,
88,0.5,1.0,89.41733430000022,,89.39407999999821,89.41733430000022,89.90759549988434,89.90759549988434,89.92326890002005,90.2222974000033,90.4419448999688,left,-1.0,1,1,0.5167537999805063,134211,001,2024-09-10_18h16.03.644,AdaptiveStaircaseProcedure,2024.1.5,None,2024-09-10 18h16.09.658444 +0530,
89,0.5,1.0,90.45577959995717,,90.44208479998633,90.45577959995717,90.95720439986326,90.95720439986326,90.95720439986326,91.27251689997502,91.4913174000103,left,-1.0,1,1,0.5265969999600202,134211,001,2024-09-10_18h16.03.644,AdaptiveStaircaseProcedure,2024.1.5,None,2024-09-10 18h16.09.658444 +0530,
90,0.5,1.0,91.5046043000184,,91.49145879992284,91.5046043000184,92.0049762998242,92.0049762998242,92.0049762998242,92.30574389989488,92.49271589983255,right,1.0,1,1,0.4819320999085903,134211,001,2024-09-10_18h16.03.644,AdaptiveStaircaseProcedure,2024.1.5,None,2024-09-10 18h16.09.658444 +0530,
91,0.5,1.0,92.51503629982471,,92.49289549980313,92.51503629982471,93.00475069996901,93.00475069996901,93.0198845998384,93.32018109993078,93.42307109991089,left,-1.0,1,1,0.4164617999922484,134211,001,2024-09-10_18h16.03.644,AdaptiveStaircaseProcedure,2024.1.5,None,2024-09-10 18h16.09.658444 +0530,
92,0.5,1.0,93.43747020000592,,93.42320630000904,93.43747020000592,93.93623499991372,93.93623499991372,93.93623499991372,94.23676549992524,94.50346659985371,left,-1.0,1,1,0.5550182000733912,134211,001,2024-09-10_18h16.03.644,AdaptiveStaircaseProcedure,2024.1.5,None,2024-09-10 18h16.09.658444 +0530,
93,0.5,1.0,94.51966829993762,,94.50361129990779,94.51966829993762,95.01945769996382,95.01945769996382,95.03488389984705,95.31973769981414,95.43655089987442,left,-1.0,1,1,0.4133242000825703,134211,001,2024-09-10_18h16.03.644,AdaptiveStaircaseProcedure,2024.1.5,None,2024-09-10 18h16.09.658444 +0530,
94,0.5,1.0,95.45236939983442,,95.43668829998933,95.45236939983442,95.95190229988657,95.95190229988657,95.9681305999402,96.26468129991554,96.41724589979276,right,1.0,1,1,0.4607043999712914,134211,001,2024-09-10_18h16.03.644,AdaptiveStaircaseProcedure,2024.1.5,None,2024-09-10 18h16.09.658444 +0530,
95,0.5,1.0,96.43142699985765,,96.41736419987865,96.43142699985765,96.93356359982863,96.93356359982863,96.93356359982863,97.23247509985231,97.50156529992819,right,1.0,1,1,0.5650047999806702,134211,001,2024-09-10_18h16.03.644,AdaptiveStaircaseProcedure,2024.1.5,None,2024-09-10 18h16.09.658444 +0530,
96,0.5,1.0,97.51661839988083,,97.50173819996417,97.51661839988083,98.01680859993212,98.01680859993212,98.03181039984338,98.33235009992495,98.55152109987102,right,1.0,1,1,0.5183609998784959,134211,001,2024-09-10_18h16.03.644,AdaptiveStaircaseProcedure,2024.1.5,None,2024-09-10 18h16.09.658444 +0530,
97,0.5,1.0,98.56506960000843,,98.5516572999768,98.56506960000843,99.0649663999211,99.0649663999211,99.0649663999211,99.36439739982598,99.48470859997906,right,1.0,1,1,0.4144552000798285,134211,001,2024-09-10_18h16.03.644,AdaptiveStaircaseProcedure,2024.1.5,None,2024-09-10 18h16.09.658444 +0530,
98,0.5,1.0,99.50832459982485,,99.48484489996918,99.50832459982485,99.99898539995775,99.99898539995775,100.01358789997175,100.32105739996769,100.38312459993176,right,1.0,1,1,0.376523399958387,134211,001,2024-09-10_18h16.03.644,AdaptiveStaircaseProcedure,2024.1.5,None,2024-09-10 18h16.09.658444 +0530,
99,0.5,1.0,100.40768949990161,,100.38329869997688,100.40768949990161,100.89803859987296,100.89803859987296,100.91238259989768,101.2125523998402,101.53253859980032,left,-1.0,1,1,0.6315188000444323,134211,001,2024-09-10_18h16.03.644,AdaptiveStaircaseProcedure,2024.1.5,None,2024-09-10 18h16.09.658444 +0530,
