stair.thisTrialN,stair.stepSize,stair.intensity,thisRow.t,notes,trial.started,fixation.started,grating.started,key_resp.started,fixation.stopped,grating.stopped,trial.stopped,corrAns,tilt,key_resp.corr,stair.response,key_resp.rt,participant,session,date,expName,psychopyVersion,frameRate,expStart,
0,2,20.0,0.03084140000100888,,0.009983100000681588,0.03084140000100888,0.5267032000010659,0.5267032000010659,0.549163600000611,0.8317308000005141,1.0102299000009225,right,20.0,1,1,0.4066640000000916,702782,001,2024-09-12_20h16.11.829,AdaptiveStaircaseProcedure,2024.1.5,None,2024-09-12 20h16.16.870979 +0530,
1,2,18.0,1.0257159000011598,,1.0103102000011859,1.0257159000011598,1.5131422000013117,1.5131422000013117,1.5284238000003825,1.828145700001187,2.0501999000007345,right,18.0,1,1,0.5272726000002876,702782,001,2024-09-12_20h16.11.829,AdaptiveStaircaseProcedure,2024.1.5,None,2024-09-12 20h16.16.870979 +0530,
2,2,16.0,2.063611999999921,,2.050339500001428,2.063611999999921,2.563542200001393,2.563542200001393,2.563542200001393,2.8636200000000827,3.015982900000381,right,16.0,1,1,0.4462929000001168,702782,001,2024-09-12_20h16.11.829,AdaptiveStaircaseProcedure,2024.1.5,None,2024-09-12 20h16.16.870979 +0530,
3,2,14.0,3.0297731000009662,,3.016121900000144,3.0297731000009662,3.5294486000002507,3.5294486000002507,3.5294486000002507,3.843040200001269,3.961704200000895,left,-14.0,1,1,0.42608819999986736,702782,001,2024-09-12_20h16.11.829,AdaptiveStaircaseProcedure,2024.1.5,None,2024-09-12 20h16.16.870979 +0530,
4,2,12.0,3.9764055000014196,,3.9617634000005637,3.9764055000014196,4.477350800001659,4.477350800001659,4.477350800001659,4.778262700001505,4.946643799999947,right,12.0,1,1,0.45528050000029907,702782,001,2024-09-12_20h16.11.829,AdaptiveStaircaseProcedure,2024.1.5,None,2024-09-12 20h16.16.870979 +0530,
5,2,10.0,4.962284200000795,,4.946779000001698,4.962284200000795,5.461632200000167,5.461632200000167,5.478130600000441,5.7772187999999005,6.063330599999972,right,10.0,1,1,0.5838404999994964,702782,001,2024-09-12_20h16.11.829,AdaptiveStaircaseProcedure,2024.1.5,None,2024-09-12 20h16.16.870979 +0530,
6,2,8.0,6.077110100000937,,6.063465700000961,6.077110100000937,6.574452100001508,6.574452100001508,6.594216000001325,6.876309200000833,6.977992300000551,right,8.0,1,1,0.39986060000046564,702782,001,2024-09-12_20h16.11.829,AdaptiveStaircaseProcedure,2024.1.5,None,2024-09-12 20h16.16.870979 +0530,
7,2,6.0,6.993490100001509,,6.978125800000271,6.993490100001509,7.490195500000482,7.490195500000482,7.5063436000000365,7.790197000000262,7.906717200001367,left,-6.0,1,1,0.4066811999982747,702782,001,2024-09-12_20h16.11.829,AdaptiveStaircaseProcedure,2024.1.5,None,2024-09-12 20h16.16.870979 +0530,
8,2,4.0,7.9232919000005495,,7.9067757000011625,7.9232919000005495,8.405735300000742,8.405735300000742,8.42289090000122,8.705165300001681,8.809662100000423,left,-4.0,1,1,0.397663099998681,702782,001,2024-09-12_20h16.11.829,AdaptiveStaircaseProcedure,2024.1.5,None,2024-09-12 20h16.16.870979 +0530,
9,2,2.0,8.825105500000063,,8.809798400001455,8.825105500000063,9.325215500000922,9.325215500000922,9.325215500000922,9.63958200000161,9.857585800000379,right,2.0,1,1,0.5307425999999396,702782,001,2024-09-12_20h16.11.829,AdaptiveStaircaseProcedure,2024.1.5,None,2024-09-12 20h16.16.870979 +0530,
10,1,0.1,9.87171060000037,,9.85767670000132,9.87171060000037,10.370404100000087,10.370404100000087,10.370404100000087,10.670106300000043,10.891064200000983,right,0.1,0,0,0.5028363999990688,702782,001,2024-09-12_20h16.11.829,AdaptiveStaircaseProcedure,2024.1.5,None,2024-09-12 20h16.16.870979 +0530,
11,1,1.1,10.904712600000494,,10.891220200001044,10.904712600000494,11.404390500001682,11.404390500001682,11.404390500001682,11.704161600000589,11.972898800000621,right,1.1,1,1,0.5593262999991566,702782,001,2024-09-12_20h16.11.829,AdaptiveStaircaseProcedure,2024.1.5,None,2024-09-12 20h16.16.870979 +0530,
12,1,1.1,11.988546900000074,,11.973015999999916,11.988546900000074,12.487848600001598,12.487848600001598,12.503631500001575,12.801621000000523,13.019275600001492,right,1.1,0,0,0.5238671999995859,702782,001,2024-09-12_20h16.11.829,AdaptiveStaircaseProcedure,2024.1.5,None,2024-09-12 20h16.16.870979 +0530,
13,1,2.1,13.034393400001136,,13.019345700000486,13.034393400001136,13.520615299999918,13.520615299999918,13.536370200001329,13.836246600001687,14.25167120000151,right,2.1,1,1,0.7284094999995432,702782,001,2024-09-12_20h16.11.829,AdaptiveStaircaseProcedure,2024.1.5,None,2024-09-12 20h16.16.870979 +0530,
14,1,2.1,14.266997400000037,,14.251765800001522,14.266997400000037,14.753285500000857,14.753285500000857,14.76870930000041,15.06857940000009,15.421239400000559,right,2.1,1,1,0.6630029000007198,702782,001,2024-09-12_20h16.11.829,AdaptiveStaircaseProcedure,2024.1.5,None,2024-09-12 20h16.16.870979 +0530,
15,1,2.1,15.434676200000467,,15.42137189999994,15.434676200000467,15.93266180000137,15.93266180000137,15.949122800000623,16.231662900001538,16.465309900000648,left,-2.1,1,1,0.5187314999984665,702782,001,2024-09-12_20h16.11.829,AdaptiveStaircaseProcedure,2024.1.5,None,2024-09-12 20h16.16.870979 +0530,
16,1,1.1,16.481669700000566,,16.465369500001543,16.481669700000566,16.964447199999995,16.964447199999995,16.98196630000166,17.266469100000904,17.50154610000027,right,1.1,1,1,0.5228386999988288,702782,001,2024-09-12_20h16.11.829,AdaptiveStaircaseProcedure,2024.1.5,None,2024-09-12 20h16.16.870979 +0530,
17,1,1.1,17.517276300000958,,17.501714100000754,17.517276300000958,18.016730800000005,18.016730800000005,18.03343270000005,18.31612270000005,18.750890000001164,right,1.1,1,1,0.7297352000005048,702782,001,2024-09-12_20h16.11.829,AdaptiveStaircaseProcedure,2024.1.5,None,2024-09-12 20h16.16.870979 +0530,
18,1,1.1,18.76487740000084,,18.75110400000085,18.76487740000084,19.263129700000718,19.263129700000718,19.279485600000044,19.561740800001644,19.78355570000167,left,-1.1,1,1,0.5063239999999496,702782,001,2024-09-12_20h16.11.829,AdaptiveStaircaseProcedure,2024.1.5,None,2024-09-12 20h16.16.870979 +0530,
19,0.5,0.10000000000000009,19.797134400001596,,19.783690900001602,19.797134400001596,20.29683819999991,20.29683819999991,20.29683819999991,20.596574600000167,20.98242680000112,right,0.10000000000000009,0,0,0.6803443999997398,702782,001,2024-09-12_20h16.11.829,AdaptiveStaircaseProcedure,2024.1.5,None,2024-09-12 20h16.16.870979 +0530,
20,0.5,0.6000000000000001,20.996442800000295,,20.982592000000295,20.996442800000295,21.49347630000011,21.49347630000011,21.510304299999916,21.79319150000083,22.144095200001175,right,0.6000000000000001,1,1,0.6368079999992915,702782,001,2024-09-12_20h16.11.829,AdaptiveStaircaseProcedure,2024.1.5,None,2024-09-12 20h16.16.870979 +0530,
21,0.5,0.6000000000000001,22.159565300000395,,22.14415260000169,22.159565300000395,22.64642620000086,22.64642620000086,22.661384500001077,22.961242800000036,23.380104000001666,right,0.6000000000000001,0,0,0.7203709999994317,702782,001,2024-09-12_20h16.11.829,AdaptiveStaircaseProcedure,2024.1.5,None,2024-09-12 20h16.16.870979 +0530,
22,0.5,1.1,23.393862200000513,,23.380242900000667,23.393862200000513,23.890897200000836,23.890897200000836,23.908227600000828,24.190508200001204,24.413128700000016,right,1.1,1,1,0.5199855999999272,702782,001,2024-09-12_20h16.11.829,AdaptiveStaircaseProcedure,2024.1.5,None,2024-09-12 20h16.16.870979 +0530,
23,0.5,1.1,24.42634050000015,,24.413263400001597,24.42634050000015,24.925687000000835,24.925687000000835,24.925687000000835,25.24045280000064,25.55678210000042,right,1.1,1,1,0.616214100000434,702782,001,2024-09-12_20h16.11.829,AdaptiveStaircaseProcedure,2024.1.5,None,2024-09-12 20h16.16.870979 +0530,
24,0.5,1.1,25.573413600001004,,25.5568398000014,25.573413600001004,26.055634100001043,26.055634100001043,26.089532300000428,26.355396300001303,26.556297099999938,left,-1.1,1,1,0.4858586999998806,702782,001,2024-09-12_20h16.11.829,AdaptiveStaircaseProcedure,2024.1.5,None,2024-09-12 20h16.16.870979 +0530,
25,0.5,0.6000000000000001,26.572614000000613,,26.556356700000833,26.572614000000613,27.05473660000098,27.05473660000098,27.08808230000068,27.35669600000074,27.991572900000392,left,-0.6000000000000001,0,0,0.9346849000012298,702782,001,2024-09-12_20h16.11.829,AdaptiveStaircaseProcedure,2024.1.5,None,2024-09-12 20h16.16.870979 +0530,
26,0.5,1.1,28.007201300000816,,27.991741300000285,28.007201300000816,28.503980200001024,28.503980200001024,28.520118800001,28.806611200001498,29.024533300000257,left,-1.1,1,1,0.5183025000005728,702782,001,2024-09-12_20h16.11.829,AdaptiveStaircaseProcedure,2024.1.5,None,2024-09-12 20h16.16.870979 +0530,
27,0.5,1.1,29.039929600001415,,29.024665700000696,29.039929600001415,29.537756500001706,29.537756500001706,29.553295800000342,29.852380300000732,29.98637150000104,left,-1.1,1,1,0.44565940000029514,702782,001,2024-09-12_20h16.11.829,AdaptiveStaircaseProcedure,2024.1.5,None,2024-09-12 20h16.16.870979 +0530,
28,0.5,1.1,30.00245950000135,,29.986430400000245,30.00245950000135,30.502078500001517,30.502078500001517,30.518461300000126,30.804841000001034,30.955060300000696,left,-1.1,1,1,0.440133699999933,702782,001,2024-09-12_20h16.11.829,AdaptiveStaircaseProcedure,2024.1.5,None,2024-09-12 20h16.16.870979 +0530,
29,0.5,0.6000000000000001,30.971473600000536,,30.955200100001093,30.971473600000536,31.467771500001618,31.467771500001618,31.484609200000705,31.778407499999958,31.86855470000046,left,-0.6000000000000001,1,1,0.390895399999863,702782,001,2024-09-12_20h16.11.829,AdaptiveStaircaseProcedure,2024.1.5,None,2024-09-12 20h16.16.870979 +0530,
30,0.5,0.6000000000000001,31.88324610000018,,31.86863220000123,31.88324610000018,32.3827710000005,32.3827710000005,32.3827710000005,32.682703700000275,32.76819140000043,left,-0.6000000000000001,1,1,0.3815577999994275,702782,001,2024-09-12_20h16.11.829,AdaptiveStaircaseProcedure,2024.1.5,None,2024-09-12 20h16.16.870979 +0530,
31,0.5,0.6000000000000001,32.7825456999999,,32.76828210000167,32.7825456999999,33.2829408000016,33.2829408000016,33.2829408000016,33.58209360000001,33.770468900000196,right,0.6000000000000001,1,1,0.47562899999866204,702782,001,2024-09-12_20h16.11.829,AdaptiveStaircaseProcedure,2024.1.5,None,2024-09-12 20h16.16.870979 +0530,
32,0.5,0.10000000000000009,33.784402400000545,,33.77060540000093,33.784402400000545,34.284654500001125,34.284654500001125,34.284654500001125,34.59852830000091,34.93218390000038,left,-0.10000000000000009,1,1,0.6415147999996407,702782,001,2024-09-12_20h16.11.829,AdaptiveStaircaseProcedure,2024.1.5,None,2024-09-12 20h16.16.870979 +0530,
33,0.5,0.10000000000000009,34.947097700000086,,34.93226649999997,34.947097700000086,35.44741990000148,35.44741990000148,35.44741990000148,35.74652170000081,36.03125480000017,right,0.10000000000000009,0,0,0.5733732000007876,702782,001,2024-09-12_20h16.11.829,AdaptiveStaircaseProcedure,2024.1.5,None,2024-09-12 20h16.16.870979 +0530,
34,0.5,0.6000000000000001,36.04609150000033,,36.03131400000166,36.04609150000033,36.546079499999905,36.546079499999905,36.546079499999905,36.84772030000022,37.13431590000073,right,0.6000000000000001,0,0,0.5789249000008567,702782,001,2024-09-12_20h16.11.829,AdaptiveStaircaseProcedure,2024.1.5,None,2024-09-12 20h16.16.870979 +0530,
35,0.5,1.1,37.14795250000134,,37.13445430000138,37.14795250000134,37.647630200001004,37.647630200001004,37.647630200001004,37.94682540000031,38.31514430000061,left,-1.1,1,1,0.6622480000005453,702782,001,2024-09-12_20h16.11.829,AdaptiveStaircaseProcedure,2024.1.5,None,2024-09-12 20h16.16.870979 +0530,
36,0.5,1.1,38.33106200000111,,38.315279100001135,38.33106200000111,38.82770680000067,38.82770680000067,38.84362540000075,39.12768180000057,39.29833839999992,left,-1.1,1,1,0.46317439999984344,702782,001,2024-09-12_20h16.11.829,AdaptiveStaircaseProcedure,2024.1.5,None,2024-09-12 20h16.16.870979 +0530,
37,0.5,1.1,39.3126839000015,,39.29847130000053,39.3126839000015,39.80967779999992,39.80967779999992,39.83903129999999,40.10927179999999,40.21341329999996,left,-1.1,1,1,0.3927346000000398,702782,001,2024-09-12_20h16.11.829,AdaptiveStaircaseProcedure,2024.1.5,None,2024-09-12 20h16.16.870979 +0530,
38,0.5,0.6000000000000001,40.22900680000021,,40.213579300001584,40.22900680000021,40.7270092000017,40.7270092000017,40.743034300001455,41.028439000001526,41.11240470000121,left,-0.6000000000000001,1,1,0.37331929999891145,702782,001,2024-09-12_20h16.11.829,AdaptiveStaircaseProcedure,2024.1.5,None,2024-09-12 20h16.16.870979 +0530,
39,0.5,0.6000000000000001,41.12869090000095,,41.11253840000063,41.12869090000095,41.62431370000013,41.62431370000013,41.64174340000136,41.92668450000019,41.94622760000129,left,-0.6000000000000001,1,1,0.3184430999990582,702782,001,2024-09-12_20h16.11.829,AdaptiveStaircaseProcedure,2024.1.5,None,2024-09-12 20h16.16.870979 +0530,
40,0.5,0.6000000000000001,41.959889900001144,,41.94636130000072,41.959889900001144,42.457084500001656,42.457084500001656,42.47467870000037,42.75667710000016,42.85751520000122,right,0.6000000000000001,0,0,0.3930999999993219,702782,001,2024-09-12_20h16.11.829,AdaptiveStaircaseProcedure,2024.1.5,None,2024-09-12 20h16.16.870979 +0530,
41,0.5,1.1,42.873946600000636,,42.85759230000076,42.873946600000636,43.35927630000151,43.35927630000151,43.376248399999895,43.674066600000515,43.79011530000025,left,-1.1,1,1,0.41603349999968486,702782,001,2024-09-12_20h16.11.829,AdaptiveStaircaseProcedure,2024.1.5,None,2024-09-12 20h16.16.870979 +0530,
42,0.5,1.1,43.80645710000135,,43.79018050000013,43.80645710000135,44.3063602000002,44.3063602000002,44.322042200001306,44.60859970000092,44.710595900000044,right,1.1,1,1,0.40134610000131943,702782,001,2024-09-12_20h16.11.829,AdaptiveStaircaseProcedure,2024.1.5,None,2024-09-12 20h16.16.870979 +0530,
43,0.5,1.1,44.72389550000116,,44.71076190000167,44.72389550000116,45.22393440000087,45.22393440000087,45.22393440000087,45.53777500000069,45.65498070000103,left,-1.1,1,1,0.41802149999966787,702782,001,2024-09-12_20h16.11.829,AdaptiveStaircaseProcedure,2024.1.5,None,2024-09-12 20h16.16.870979 +0530,
44,0.5,0.6000000000000001,45.6712363000006,,45.65504090000104,45.6712363000006,46.153618900001675,46.153618900001675,46.17080330000135,46.453124200001184,46.587835300000734,right,0.6000000000000001,0,0,0.42869079999945825,702782,001,2024-09-12_20h16.11.829,AdaptiveStaircaseProcedure,2024.1.5,None,2024-09-12 20h16.16.870979 +0530,
45,0.5,1.1,46.60382910000044,,46.58790660000159,46.60382910000044,47.1033505000014,47.1033505000014,47.12194020000061,47.40760030000092,47.45693780000147,left,-1.1,1,1,0.34813199999916833,702782,001,2024-09-12_20h16.11.829,AdaptiveStaircaseProcedure,2024.1.5,None,2024-09-12 20h16.16.870979 +0530,
46,0.5,1.1,47.47079120000126,,47.457102500000474,47.47079120000126,47.968484300001364,47.968484300001364,47.985801300001185,48.26843310000004,48.56901640000069,left,-1.1,0,0,0.5916761000007682,702782,001,2024-09-12_20h16.11.829,AdaptiveStaircaseProcedure,2024.1.5,None,2024-09-12 20h16.16.870979 +0530,
47,0.5,1.6,48.58516630000122,,48.56909340000129,48.58516630000122,49.07011670000065,49.07011670000065,49.08750490000057,49.3694927000015,49.751713100000416,left,-1.6,1,1,0.6646395999996457,702782,001,2024-09-12_20h16.11.829,AdaptiveStaircaseProcedure,2024.1.5,None,2024-09-12 20h16.16.870979 +0530,
48,0.5,1.6,49.76688880000074,,49.75177110000004,49.76688880000074,50.26670020000165,50.26670020000165,50.26670020000165,50.56638320000093,50.766784200000984,right,1.6,1,1,0.48509440000088944,702782,001,2024-09-12_20h16.11.829,AdaptiveStaircaseProcedure,2024.1.5,None,2024-09-12 20h16.16.870979 +0530,
49,0.5,1.6,50.78317160000006,,50.766841399999976,50.78317160000006,51.26571160000094,51.26571160000094,51.28276630000073,51.565337400001226,51.86283940000067,right,1.6,1,1,0.5822791000009602,702782,001,2024-09-12_20h16.11.829,AdaptiveStaircaseProcedure,2024.1.5,None,2024-09-12 20h16.16.870979 +0530,
50,0.5,1.1,51.88208990000021,,51.86291110000093,51.88208990000021,52.36667630000011,52.36667630000011,52.38447840000117,52.681428300000334,52.86807510000108,right,1.1,0,0,0.49786929999936547,702782,001,2024-09-12_20h16.11.829,AdaptiveStaircaseProcedure,2024.1.5,None,2024-09-12 20h16.16.870979 +0530,
51,0.5,1.6,52.8838005000016,,52.86821360000067,52.8838005000016,53.38070990000051,53.38070990000051,53.397055100000216,53.68306660000053,54.28485180000098,right,1.6,1,1,0.9014721000003192,702782,001,2024-09-12_20h16.11.829,AdaptiveStaircaseProcedure,2024.1.5,None,2024-09-12 20h16.16.870979 +0530,
52,0.5,1.6,54.298368600000686,,54.28498870000112,54.298368600000686,54.79844250000133,54.79844250000133,54.79844250000133,55.098062400000344,55.27969550000125,right,1.6,1,1,0.46976340000037453,702782,001,2024-09-12_20h16.11.829,AdaptiveStaircaseProcedure,2024.1.5,None,2024-09-12 20h16.16.870979 +0530,
53,0.5,1.6,55.29506700000093,,55.27975289999995,55.29506700000093,55.78131360000043,55.78131360000043,55.79700000000048,56.09678090000125,56.32886110000072,right,1.6,1,1,0.536359600000651,702782,001,2024-09-12_20h16.11.829,AdaptiveStaircaseProcedure,2024.1.5,None,2024-09-12 20h16.16.870979 +0530,
54,0.5,1.1,56.34447250000085,,56.32895350000035,56.34447250000085,56.84414460000153,56.84414460000153,56.84414460000153,57.144052999999985,57.2308737000003,right,1.1,1,1,0.3778970000003028,702782,001,2024-09-12_20h16.11.829,AdaptiveStaircaseProcedure,2024.1.5,None,2024-09-12 20h16.16.870979 +0530,
55,0.5,1.1,57.24734370000078,,57.23100710000108,57.24734370000078,57.7463884000008,57.7463884000008,57.762120200000936,58.046028200000364,58.55946360000053,right,1.1,1,1,0.8004027000006317,702782,001,2024-09-12_20h16.11.829,AdaptiveStaircaseProcedure,2024.1.5,None,2024-09-12 20h16.16.870979 +0530,
56,0.5,1.1,58.57574980000027,,58.559528600000704,58.57574980000027,59.059533500001635,59.059533500001635,59.077591200000825,59.36052170000039,59.579520900000716,right,1.1,1,1,0.5108094000006531,702782,001,2024-09-12_20h16.11.829,AdaptiveStaircaseProcedure,2024.1.5,None,2024-09-12 20h16.16.870979 +0530,
57,0.5,0.6000000000000001,59.593586900000446,,59.5796577000001,59.593586900000446,60.090649400000984,60.090649400000984,60.10800980000022,60.390498200000366,60.62780120000025,left,-0.6000000000000001,1,1,0.5283928000008018,702782,001,2024-09-12_20h16.11.829,AdaptiveStaircaseProcedure,2024.1.5,None,2024-09-12 20h16.16.870979 +0530,
58,0.5,0.6000000000000001,60.6438261000003,,60.6279355000006,60.6438261000003,61.14020380000147,61.14020380000147,61.156651400000555,61.43974000000162,61.72380510000039,right,0.6000000000000001,1,1,0.5824759999995877,702782,001,2024-09-12_20h16.11.829,AdaptiveStaircaseProcedure,2024.1.5,None,2024-09-12 20h16.16.870979 +0530,
59,0.5,0.6000000000000001,61.73932160000004,,61.72386380000171,61.73932160000004,62.239366200001314,62.239366200001314,62.239366200001314,62.53926990000036,62.73973509999996,right,0.6000000000000001,1,1,0.48928089999935764,702782,001,2024-09-12_20h16.11.829,AdaptiveStaircaseProcedure,2024.1.5,None,2024-09-12 20h16.16.870979 +0530,
60,0.5,0.10000000000000009,62.75528560000021,,62.73979700000018,62.75528560000021,63.25421880000067,63.25421880000067,63.25421880000067,63.55632010000045,63.809274500001266,left,-0.10000000000000009,1,1,0.5417532999999821,702782,001,2024-09-12_20h16.11.829,AdaptiveStaircaseProcedure,2024.1.5,None,2024-09-12 20h16.16.870979 +0530,
61,0.5,0.10000000000000009,63.8229091000012,,63.80940920000103,63.8229091000012,64.32240150000143,64.32240150000143,64.32240150000143,64.62224030000107,64.80807530000129,left,-0.10000000000000009,1,1,0.47862050000003364,702782,001,2024-09-12_20h16.11.829,AdaptiveStaircaseProcedure,2024.1.5,None,2024-09-12 20h16.16.870979 +0530,
62,0.5,0.10000000000000009,64.82170050000059,,64.80820920000042,64.82170050000059,65.32154489999994,65.32154489999994,65.32154489999994,65.62149610000051,65.85632030000124,right,0.10000000000000009,0,0,0.5228303999992931,702782,001,2024-09-12_20h16.11.829,AdaptiveStaircaseProcedure,2024.1.5,None,2024-09-12 20h16.16.870979 +0530,
63,0.5,0.6000000000000001,65.87215470000046,,65.85646059999999,65.87215470000046,66.36983510000027,66.36983510000027,66.3855695000002,66.68420630000037,66.86894740000025,left,-0.6000000000000001,1,1,0.4958865999997215,702782,001,2024-09-12_20h16.11.829,AdaptiveStaircaseProcedure,2024.1.5,None,2024-09-12 20h16.16.870979 +0530,
64,0.5,0.6000000000000001,66.8839147000017,,66.86902050000026,66.8839147000017,67.3840368000001,67.3840368000001,67.3840368000001,67.6835456000008,67.91739860000052,left,-0.6000000000000001,0,0,0.5203074000000925,702782,001,2024-09-12_20h16.11.829,AdaptiveStaircaseProcedure,2024.1.5,None,2024-09-12 20h16.16.870979 +0530,
65,0.5,1.1,67.93394260000059,,67.91746680000142,67.93394260000059,68.41620120000152,68.41620120000152,68.4493708000009,68.71600490000128,68.93416830000024,right,1.1,1,1,0.5109742000004189,702782,001,2024-09-12_20h16.11.829,AdaptiveStaircaseProcedure,2024.1.5,None,2024-09-12 20h16.16.870979 +0530,
66,0.5,1.1,68.9489433000017,,68.93422640000063,68.9489433000017,69.44843860000037,69.44843860000037,69.44843860000037,69.75071600000047,69.98520970000027,left,-1.1,1,1,0.5265662999991036,702782,001,2024-09-12_20h16.11.829,AdaptiveStaircaseProcedure,2024.1.5,None,2024-09-12 20h16.16.870979 +0530,
67,0.5,1.1,70.00152049999997,,69.98537990000113,70.00152049999997,70.49812610000117,70.49812610000117,70.51407010000003,70.79765970000153,71.03174260000014,right,1.1,1,1,0.5198605000005045,702782,001,2024-09-12_20h16.11.829,AdaptiveStaircaseProcedure,2024.1.5,None,2024-09-12 20h16.16.870979 +0530,
68,0.5,0.6000000000000001,71.04678000000058,,71.03180090000023,71.04678000000058,71.5315997000016,71.5315997000016,71.54765850000149,71.84598430000005,72.09747630000129,left,-0.6000000000000001,1,1,0.5490996999997151,702782,001,2024-09-12_20h16.11.829,AdaptiveStaircaseProcedure,2024.1.5,None,2024-09-12 20h16.16.870979 +0530,
69,0.5,0.6000000000000001,72.1126959000012,,72.09754320000138,72.1126959000012,72.6123645000007,72.6123645000007,72.6123645000007,72.91193610000118,73.36272439999993,left,-0.6000000000000001,1,1,0.7370599000005313,702782,001,2024-09-12_20h16.11.829,AdaptiveStaircaseProcedure,2024.1.5,None,2024-09-12 20h16.16.870979 +0530,
70,0.5,0.6000000000000001,73.37785110000004,,73.3627804000007,73.37785110000004,73.87759110000115,73.87759110000115,73.87759110000115,74.17748310000025,74.31189010000162,left,-0.6000000000000001,1,1,0.4241418000001431,702782,001,2024-09-12_20h16.11.829,AdaptiveStaircaseProcedure,2024.1.5,None,2024-09-12 20h16.16.870979 +0530,
71,0.5,0.10000000000000009,74.32782060000136,,74.31194750000031,74.32782060000136,74.81274950000079,74.81274950000079,74.82992750000085,75.11217370000122,75.39825650000057,right,0.10000000000000009,0,0,0.5732712999997602,702782,001,2024-09-12_20h16.11.829,AdaptiveStaircaseProcedure,2024.1.5,None,2024-09-12 20h16.16.870979 +0530,
72,0.5,0.6000000000000001,75.41210930000125,,75.39839970000139,75.41210930000125,75.91130140000132,75.91130140000132,75.91130140000132,76.20951840000089,76.52805330000047,left,-0.6000000000000001,1,1,0.6023609000003489,702782,001,2024-09-12_20h16.11.829,AdaptiveStaircaseProcedure,2024.1.5,None,2024-09-12 20h16.16.870979 +0530,
73,0.5,0.6000000000000001,76.54148520000126,,76.52811199999996,76.54148520000126,77.04128790000141,77.04128790000141,77.04128790000141,77.3435057000006,77.62953650000054,left,-0.6000000000000001,1,1,0.5718974999999773,702782,001,2024-09-12_20h16.11.829,AdaptiveStaircaseProcedure,2024.1.5,None,2024-09-12 20h16.16.870979 +0530,
74,0.5,0.6000000000000001,77.6434704000003,,77.62966950000009,77.6434704000003,78.14281420000043,78.14281420000043,78.14281420000043,78.44220490000043,78.8289760000007,right,0.6000000000000001,1,1,0.6840761000003113,702782,001,2024-09-12_20h16.11.829,AdaptiveStaircaseProcedure,2024.1.5,None,2024-09-12 20h16.16.870979 +0530,
75,0.5,0.10000000000000009,78.84220540000024,,78.8291474000016,78.84220540000024,79.33920190000026,79.33920190000026,79.35849440000129,79.63892930000111,80.00979280000138,left,-0.10000000000000009,1,1,0.6660890000002837,702782,001,2024-09-12_20h16.11.829,AdaptiveStaircaseProcedure,2024.1.5,None,2024-09-12 20h16.16.870979 +0530,
76,0.5,0.10000000000000009,80.0253616000009,,80.00991890000114,80.0253616000009,80.52532020000035,80.52532020000035,80.54079160000038,80.84001650000027,81.10883540000032,right,0.10000000000000009,0,0,0.5761837999998534,702782,001,2024-09-12_20h16.11.829,AdaptiveStaircaseProcedure,2024.1.5,None,2024-09-12 20h16.16.870979 +0530,
77,0.5,0.6000000000000001,81.12427410000055,,81.10900240000046,81.12427410000055,81.6243398000006,81.6243398000006,81.63994540000022,81.93906229999993,82.33752530000129,right,0.6000000000000001,1,1,0.7095970999998826,702782,001,2024-09-12_20h16.11.829,AdaptiveStaircaseProcedure,2024.1.5,None,2024-09-12 20h16.16.870979 +0530,
78,0.5,0.6000000000000001,82.35368770000059,,82.33758350000062,82.35368770000059,82.83832480000092,82.83832480000092,82.85601170000155,83.13812080000025,83.29151989999991,left,-0.6000000000000001,1,1,0.44340770000053453,702782,001,2024-09-12_20h16.11.829,AdaptiveStaircaseProcedure,2024.1.5,None,2024-09-12 20h16.16.870979 +0530,
79,0.5,0.6000000000000001,83.30467400000089,,83.29165330000069,83.30467400000089,83.80275840000104,83.80275840000104,83.82008020000103,84.10135190000074,84.38660140000138,left,-0.6000000000000001,1,1,0.5820397000006778,702782,001,2024-09-12_20h16.11.829,AdaptiveStaircaseProcedure,2024.1.5,None,2024-09-12 20h16.16.870979 +0530,
80,0.5,0.10000000000000009,84.40121530000033,,84.38666280000143,84.40121530000033,84.90102860000115,84.90102860000115,84.90102860000115,85.20054440000058,85.21896320000087,right,0.10000000000000009,1,1,0.31665830000019923,702782,001,2024-09-12_20h16.11.829,AdaptiveStaircaseProcedure,2024.1.5,None,2024-09-12 20h16.16.870979 +0530,
81,0.5,0.10000000000000009,85.23337800000081,,85.21903689999999,85.23337800000081,85.73327720000088,85.73327720000088,85.73327720000088,86.0356550000015,86.62114060000022,right,0.10000000000000009,1,1,0.8726950000000215,702782,001,2024-09-12_20h16.11.829,AdaptiveStaircaseProcedure,2024.1.5,None,2024-09-12 20h16.16.870979 +0530,
82,0.5,0.10000000000000009,86.63488099999995,,86.6212771999999,86.63488099999995,87.13201690000096,87.13201690000096,87.1494844000008,87.43191500000103,87.74966550000136,right,0.10000000000000009,0,0,0.6155303999985335,702782,001,2024-09-12_20h16.11.829,AdaptiveStaircaseProcedure,2024.1.5,None,2024-09-12 20h16.16.870979 +0530,
83,0.5,0.6000000000000001,87.76476120000007,,87.74972680000064,87.76476120000007,88.2644221999999,88.2644221999999,88.2644221999999,88.56390090000059,88.7157713000015,left,-0.6000000000000001,0,0,0.4468923000003997,702782,001,2024-09-12_20h16.11.829,AdaptiveStaircaseProcedure,2024.1.5,None,2024-09-12 20h16.16.870979 +0530,
84,0.5,1.1,88.73054410000077,,88.71583170000122,88.73054410000077,89.21706090000043,89.21706090000043,89.23258000000169,89.53231360000063,90.08031960000153,left,-1.1,1,1,0.8565317999982653,702782,001,2024-09-12_20h16.11.829,AdaptiveStaircaseProcedure,2024.1.5,None,2024-09-12 20h16.16.870979 +0530,
85,0.5,1.1,90.0966941000006,,90.08037500000137,90.0966941000006,90.58051890000024,90.58051890000024,90.59647650000079,90.89502040000116,91.0657523000009,left,-1.1,1,1,0.4693433000011282,702782,001,2024-09-12_20h16.11.829,AdaptiveStaircaseProcedure,2024.1.5,None,2024-09-12 20h16.16.870979 +0530,
86,0.5,1.1,91.08253409999998,,91.0658854000012,91.08253409999998,91.58167710000089,91.58167710000089,91.59696110000004,91.89698760000101,92.06522220000079,right,1.1,1,1,0.46745019999980286,702782,001,2024-09-12_20h16.11.829,AdaptiveStaircaseProcedure,2024.1.5,None,2024-09-12 20h16.16.870979 +0530,
87,0.5,0.6000000000000001,92.08100630000081,,92.06538189999992,92.08100630000081,92.58061350000025,92.58061350000025,92.59606200000053,92.89569720000145,93.04819970000062,left,-0.6000000000000001,1,1,0.46399420000125247,702782,001,2024-09-12_20h16.11.829,AdaptiveStaircaseProcedure,2024.1.5,None,2024-09-12 20h16.16.870979 +0530,
88,0.5,0.6000000000000001,93.06213370000114,,93.04834630000005,93.06213370000114,93.56167450000066,93.56167450000066,93.56167450000066,93.86222860000089,94.16096020000077,left,-0.6000000000000001,1,1,0.5829960999999457,702782,001,2024-09-12_20h16.11.829,AdaptiveStaircaseProcedure,2024.1.5,None,2024-09-12 20h16.16.870979 +0530,
89,0.5,0.6000000000000001,94.17680870000004,,94.16105380000045,94.17680870000004,94.66077100000075,94.66077100000075,94.67832520000047,94.9602218,95.16228880000017,right,0.6000000000000001,1,1,0.48785769999994955,702782,001,2024-09-12_20h16.11.829,AdaptiveStaircaseProcedure,2024.1.5,None,2024-09-12 20h16.16.870979 +0530,
90,0.5,0.10000000000000009,95.17776460000096,,95.1624249000015,95.17776460000096,95.67453040000146,95.67453040000146,95.69075550000161,95.97417410000162,96.1083834000001,right,0.10000000000000009,0,0,0.41809289999946486,702782,001,2024-09-12_20h16.11.829,AdaptiveStaircaseProcedure,2024.1.5,None,2024-09-12 20h16.16.870979 +0530,
91,0.5,0.6000000000000001,96.12334379999993,,96.10845870000048,96.12334379999993,96.62362680000115,96.62362680000115,96.62362680000115,96.92289170000004,97.17426680000062,right,0.6000000000000001,1,1,0.538903399999981,702782,001,2024-09-12_20h16.11.829,AdaptiveStaircaseProcedure,2024.1.5,None,2024-09-12 20h16.16.870979 +0530,
92,0.5,0.6000000000000001,97.18923990000076,,97.17432480000025,97.18923990000076,97.68872730000112,97.68872730000112,97.68872730000112,97.98828330000106,98.15613720000147,left,-0.6000000000000001,1,1,0.46150630000011006,702782,001,2024-09-12_20h16.11.829,AdaptiveStaircaseProcedure,2024.1.5,None,2024-09-12 20h16.16.870979 +0530,
93,0.5,0.6000000000000001,98.17225140000119,,98.15619480000169,98.17225140000119,98.65448700000161,98.65448700000161,98.68818270000156,98.95438650000142,99.1096293999999,left,-0.6000000000000001,1,1,0.4339281000011397,702782,001,2024-09-12_20h16.11.829,AdaptiveStaircaseProcedure,2024.1.5,None,2024-09-12 20h16.16.870979 +0530,
94,0.5,0.10000000000000009,99.12324120000085,,99.10979630000111,99.12324120000085,99.62267060000158,99.62267060000158,99.62267060000158,99.92249820000143,100.20845120000013,left,-0.10000000000000009,0,0,0.5733665999996447,702782,001,2024-09-12_20h16.11.829,AdaptiveStaircaseProcedure,2024.1.5,None,2024-09-12 20h16.16.870979 +0530,
95,0.5,0.6000000000000001,100.22275680000166,,100.20862220000163,100.22275680000166,100.71908460000122,100.71908460000122,100.73663699999997,101.0190760000005,101.15670580000005,right,0.6000000000000001,1,1,0.41997129999981553,702782,001,2024-09-12_20h16.11.829,AdaptiveStaircaseProcedure,2024.1.5,None,2024-09-12 20h16.16.870979 +0530,
96,0.5,0.6000000000000001,101.17043920000106,,101.15684409999994,101.17043920000106,101.67153050000161,101.67153050000161,101.67153050000161,101.97122670000135,102.10657900000115,right,0.6000000000000001,1,1,0.42150109999965935,702782,001,2024-09-12_20h16.11.829,AdaptiveStaircaseProcedure,2024.1.5,None,2024-09-12 20h16.16.870979 +0530,
97,0.5,0.6000000000000001,102.12001670000063,,102.10671690000163,102.12001670000063,102.61751530000038,102.61751530000038,102.63486190000003,102.9172294,103.0844771000011,right,0.6000000000000001,1,1,0.45963529999971797,702782,001,2024-09-12_20h16.11.829,AdaptiveStaircaseProcedure,2024.1.5,None,2024-09-12 20h16.16.870979 +0530,
98,0.5,0.10000000000000009,103.10082390000025,,103.0845362,103.10082390000025,103.58328400000028,103.58328400000028,103.60042849999991,103.88582180000049,104.12085910000133,left,-0.10000000000000009,0,0,0.5305009000003338,702782,001,2024-09-12_20h16.11.829,AdaptiveStaircaseProcedure,2024.1.5,None,2024-09-12 20h16.16.870979 +0530,
99,0.5,0.6000000000000001,104.1364166000003,,104.12102800000139,104.1364166000003,104.63603330000115,104.63603330000115,104.65175660000023,104.95107220000136,105.23323900000105,right,0.6000000000000001,1,1,0.5859173999997438,702782,001,2024-09-12_20h16.11.829,AdaptiveStaircaseProcedure,2024.1.5,None,2024-09-12 20h16.16.870979 +0530,
100,0.5,0.6000000000000001,105.24861600000077,,105.23330760000135,105.24861600000077,105.74789950000013,105.74789950000013,105.74789950000013,106.0475017000008,106.23207090000142,right,0.6000000000000001,1,1,0.46724820000054024,702782,001,2024-09-12_20h16.11.829,AdaptiveStaircaseProcedure,2024.1.5,None,2024-09-12 20h16.16.870979 +0530,
101,0.5,0.6000000000000001,106.24755360000017,,106.23212740000054,106.24755360000017,106.74710100000084,106.74710100000084,106.74710100000084,107.04955169999994,107.28417440000158,right,0.6000000000000001,0,0,0.5324419000007765,702782,001,2024-09-12_20h16.11.829,AdaptiveStaircaseProcedure,2024.1.5,None,2024-09-12 20h16.16.870979 +0530,
102,0.5,1.1,107.3001572000012,,107.28431470000032,107.3001572000012,107.79944419999993,107.79944419999993,107.81527790000109,108.11487960000159,108.33267130000058,left,-1.1,1,1,0.5145986999996239,702782,001,2024-09-12_20h16.11.829,AdaptiveStaircaseProcedure,2024.1.5,None,2024-09-12 20h16.16.870979 +0530,
103,0.5,1.1,108.34645640000053,,108.33276500000102,108.34645640000053,108.84511920000114,108.84511920000114,108.84511920000114,109.1444889000013,109.37839160000112,right,1.1,1,1,0.5216638000001694,702782,001,2024-09-12_20h16.11.829,AdaptiveStaircaseProcedure,2024.1.5,None,2024-09-12 20h16.16.870979 +0530,
104,0.5,1.1,109.39481210000122,,109.37845080000079,109.39481210000122,109.87773040000138,109.87773040000138,109.89508180000121,110.17671970000083,110.37791600000128,right,1.1,1,1,0.493589299998348,702782,001,2024-09-12_20h16.11.829,AdaptiveStaircaseProcedure,2024.1.5,None,2024-09-12 20h16.16.870979 +0530,
105,0.5,0.6000000000000001,110.39418420000038,,110.37800730000163,110.39418420000038,110.87654090000069,110.87654090000069,110.8937177000007,111.17623890000141,111.37701340000058,left,-0.6000000000000001,1,1,0.49939919999997073,702782,001,2024-09-12_20h16.11.829,AdaptiveStaircaseProcedure,2024.1.5,None,2024-09-12 20h16.16.870979 +0530,
106,0.5,0.6000000000000001,111.39315030000034,,111.37707210000008,111.39315030000034,111.87640749999991,111.87640749999991,111.89294420000078,112.17640890000075,112.60975670000153,left,-0.6000000000000001,0,0,0.7188979000002291,702782,001,2024-09-12_20h16.11.829,AdaptiveStaircaseProcedure,2024.1.5,None,2024-09-12 20h16.16.870979 +0530,
107,0.5,1.1,112.62571490000119,,112.60983699999997,112.62571490000119,113.12482850000015,113.12482850000015,113.14112730000124,113.42477020000115,113.6253183000008,right,1.1,0,0,0.4994968000009976,702782,001,2024-09-12_20h16.11.829,AdaptiveStaircaseProcedure,2024.1.5,None,2024-09-12 20h16.16.870979 +0530,
108,0.5,1.6,113.64078960000006,,113.62538850000055,113.64078960000006,114.14009510000142,114.14009510000142,114.14009510000142,114.4422596000004,114.5771132000009,right,1.6,1,1,0.42620569999962754,702782,001,2024-09-12_20h16.11.829,AdaptiveStaircaseProcedure,2024.1.5,None,2024-09-12 20h16.16.870979 +0530,
109,0.5,1.6,114.59284480000133,,114.57724550000057,114.59284480000133,115.08969780000007,115.08969780000007,115.10582370000157,115.39177689999997,115.57543860000078,right,1.6,1,1,0.4719968000008521,702782,001,2024-09-12_20h16.11.829,AdaptiveStaircaseProcedure,2024.1.5,None,2024-09-12 20h16.16.870979 +0530,
110,0.5,1.6,115.59150840000075,,115.57555790000151,115.59150840000075,116.08892140000171,116.08892140000171,116.10495750000155,116.38829990000158,116.45590059999995,right,1.6,1,1,0.3658032999992429,702782,001,2024-09-12_20h16.11.829,AdaptiveStaircaseProcedure,2024.1.5,None,2024-09-12 20h16.16.870979 +0530,
111,0.5,1.1,116.47116570000071,,116.45596620000106,116.47116570000071,116.95757279999998,116.95757279999998,116.9732468000002,117.2731543000009,117.64155130000108,left,-1.1,1,1,0.6680553999995027,702782,001,2024-09-12_20h16.11.829,AdaptiveStaircaseProcedure,2024.1.5,None,2024-09-12 20h16.16.870979 +0530,
112,0.5,1.1,117.65678930000104,,117.64168600000085,117.65678930000104,118.15364340000087,118.15364340000087,118.1697507000008,118.45337319999999,118.70656660000168,right,1.1,1,1,0.5472799999988638,702782,001,2024-09-12_20h16.11.829,AdaptiveStaircaseProcedure,2024.1.5,None,2024-09-12 20h16.16.870979 +0530,
113,0.5,1.1,118.7225570999999,,118.7067005000008,118.7225570999999,119.21939350000139,119.21939350000139,119.23513970000022,119.52197390000038,119.69002670000009,right,1.1,1,1,0.4641231000005064,702782,001,2024-09-12_20h16.11.829,AdaptiveStaircaseProcedure,2024.1.5,None,2024-09-12 20h16.16.870979 +0530,
114,0.5,0.6000000000000001,119.70395940000162,,119.69016360000023,119.70395940000162,120.20081230000142,120.20081230000142,120.2180143000005,120.50095780000083,120.55195650000132,right,0.6000000000000001,1,1,0.33983339999940654,702782,001,2024-09-12_20h16.11.829,AdaptiveStaircaseProcedure,2024.1.5,None,2024-09-12 20h16.16.870979 +0530,
115,0.5,0.6000000000000001,120.56738160000168,,120.55202790000112,120.56738160000168,121.06700360000104,121.06700360000104,121.06700360000104,121.36680930000148,121.4342499000013,right,0.6000000000000001,1,1,0.3580713999999716,702782,001,2024-09-12_20h16.11.829,AdaptiveStaircaseProcedure,2024.1.5,None,2024-09-12 20h16.16.870979 +0530,
116,0.5,0.6000000000000001,121.45032790000005,,121.4343071000003,121.45032790000005,121.9353925000014,121.9353925000014,121.95265990000007,122.25087620000158,122.35049610000169,left,-0.6000000000000001,0,0,0.4001275999999052,702782,001,2024-09-12_20h16.11.829,AdaptiveStaircaseProcedure,2024.1.5,None,2024-09-12 20h16.16.870979 +0530,
117,0.5,1.1,122.36579310000161,,122.35055640000064,122.36579310000161,122.85193550000076,122.85193550000076,122.86731630000031,123.15135390000069,123.46881650000068,right,1.1,1,1,0.6107332999999926,702782,001,2024-09-12_20h16.11.829,AdaptiveStaircaseProcedure,2024.1.5,None,2024-09-12 20h16.16.870979 +0530,
118,0.5,1.1,123.48451060000116,,123.46894820000125,123.48451060000116,123.98461560000032,123.98461560000032,124.00011460000133,124.29968970000118,124.40128280000135,right,1.1,1,1,0.4013957000006485,702782,001,2024-09-12_20h16.11.829,AdaptiveStaircaseProcedure,2024.1.5,None,2024-09-12 20h16.16.870979 +0530,
119,0.5,1.1,124.41714990000037,,124.40150780000113,124.41714990000037,124.89916410000114,124.89916410000114,124.9326944000004,125.19913610000003,125.35167120000006,left,-1.1,1,1,0.4470815999993647,702782,001,2024-09-12_20h16.11.829,AdaptiveStaircaseProcedure,2024.1.5,None,2024-09-12 20h16.16.870979 +0530,
120,0.5,0.6000000000000001,125.36579789999996,,125.35181120000016,125.36579789999996,125.86243480000121,125.86243480000121,125.87974630000099,126.16233000000102,126.49594050000087,left,-0.6000000000000001,1,1,0.6229533000005176,702782,001,2024-09-12_20h16.11.829,AdaptiveStaircaseProcedure,2024.1.5,None,2024-09-12 20h16.16.870979 +0530,
121,0.5,0.6000000000000001,126.51238600000033,,126.49601540000003,126.51238600000033,126.99783230000139,126.99783230000139,127.01495690000047,127.2968630000014,127.49882680000155,right,0.6000000000000001,1,1,0.4892593000004126,702782,001,2024-09-12_20h16.11.829,AdaptiveStaircaseProcedure,2024.1.5,None,2024-09-12 20h16.16.870979 +0530,
122,0.5,0.6000000000000001,127.51241699999991,,127.49896140000055,127.51241699999991,128.01165070000025,128.01165070000025,128.0273556000011,128.3131314000002,128.64901950000058,right,0.6000000000000001,0,0,0.6350213000005169,702782,001,2024-09-12_20h16.11.829,AdaptiveStaircaseProcedure,2024.1.5,None,2024-09-12 20h16.16.870979 +0530,
123,0.5,1.1,128.66185230000156,,128.6491586000011,128.66185230000156,129.15931290000117,129.15931290000117,129.17667640000036,129.4615647999999,129.99621210000078,right,1.1,1,1,0.8293506999998499,702782,001,2024-09-12_20h16.11.829,AdaptiveStaircaseProcedure,2024.1.5,None,2024-09-12 20h16.16.870979 +0530,
124,0.5,1.1,130.0123603000011,,129.99634480000168,130.0123603000011,130.5117949000014,130.5117949000014,130.5273556000011,130.8271850000001,130.95858680000129,right,1.1,1,1,0.43730760000107693,702782,001,2024-09-12_20h16.11.829,AdaptiveStaircaseProcedure,2024.1.5,None,2024-09-12 20h16.16.870979 +0530,
125,0.5,1.1,130.97470109999995,,130.95864430000074,130.97470109999995,131.45742530000098,131.45742530000098,131.47446880000098,131.75685420000082,132.02411030000076,left,-1.1,1,1,0.5512489000011556,702782,001,2024-09-12_20h16.11.829,AdaptiveStaircaseProcedure,2024.1.5,None,2024-09-12 20h16.16.870979 +0530,
126,0.5,0.6000000000000001,132.0405281000003,,132.02417320000131,132.0405281000003,132.5227700000014,132.5227700000014,132.5563875000007,132.82265010000083,133.07781419999992,right,0.6000000000000001,1,1,0.5456745999999839,702782,001,2024-09-12_20h16.11.829,AdaptiveStaircaseProcedure,2024.1.5,None,2024-09-12 20h16.16.870979 +0530,
127,0.5,0.6000000000000001,133.09022910000022,,133.07795630000146,133.09022910000022,133.5889739000013,133.5889739000013,133.5889739000013,133.88828009999997,134.18904629999997,left,-0.6000000000000001,1,1,0.5946308000002318,702782,001,2024-09-12_20h16.11.829,AdaptiveStaircaseProcedure,2024.1.5,None,2024-09-12 20h16.16.870979 +0530,
128,0.5,0.6000000000000001,134.20549759999994,,134.18910219999998,134.20549759999994,134.68770310000036,134.68770310000036,134.72087480000118,135.00416230000155,135.19249860000127,left,-0.6000000000000001,1,1,0.49170739999863144,702782,001,2024-09-12_20h16.11.829,AdaptiveStaircaseProcedure,2024.1.5,None,2024-09-12 20h16.16.870979 +0530,
129,0.5,0.10000000000000009,135.2064276000001,,135.1926362000013,135.2064276000001,135.70542190000015,135.70542190000015,135.70542190000015,136.00546700000086,136.27411350000148,left,-0.10000000000000009,0,0,0.5568309999998746,702782,001,2024-09-12_20h16.11.829,AdaptiveStaircaseProcedure,2024.1.5,None,2024-09-12 20h16.16.870979 +0530,
130,0.5,0.6000000000000001,136.2888653000009,,136.27428950000103,136.2888653000009,136.78534430000036,136.78534430000036,136.80283320000126,137.08581820000109,137.33676530000048,right,0.6000000000000001,1,1,0.5479505000002973,702782,001,2024-09-12_20h16.11.829,AdaptiveStaircaseProcedure,2024.1.5,None,2024-09-12 20h16.16.870979 +0530,
131,0.5,0.6000000000000001,137.35142150000138,,137.33683330000167,137.35142150000138,137.8371814000002,137.8371814000002,137.85349830000087,138.15123940000012,138.38512210000044,right,0.6000000000000001,1,1,0.5450037000009615,702782,001,2024-09-12_20h16.11.829,AdaptiveStaircaseProcedure,2024.1.5,None,2024-09-12 20h16.16.870979 +0530,
132,0.5,0.6000000000000001,138.4013382000012,,138.38517990000037,138.4013382000012,138.8838575000009,138.8838575000009,138.90108300000065,139.1831181000016,139.46771630000148,left,-0.6000000000000001,1,1,0.5676102999987052,702782,001,2024-09-12_20h16.11.829,AdaptiveStaircaseProcedure,2024.1.5,None,2024-09-12 20h16.16.870979 +0530,
133,0.5,0.10000000000000009,139.48267220000162,,139.46777700000166,139.48267220000162,139.9695496000004,139.9695496000004,139.98510350000106,140.28449960000034,140.4172679000003,right,0.10000000000000009,1,1,0.4347297999993316,702782,001,2024-09-12_20h16.11.829,AdaptiveStaircaseProcedure,2024.1.5,None,2024-09-12 20h16.16.870979 +0530,
134,0.5,0.10000000000000009,140.43221360000098,,140.41732630000115,140.43221360000098,140.91813090000142,140.91813090000142,140.93420980000155,141.21842560000005,141.61984380000104,left,-0.10000000000000009,0,0,0.6927212000009604,702782,001,2024-09-12_20h16.11.829,AdaptiveStaircaseProcedure,2024.1.5,None,2024-09-12 20h16.16.870979 +0530,
135,0.5,0.6000000000000001,141.63379650000024,,141.61999340000148,141.63379650000024,142.13052349999998,142.13052349999998,142.15090370000144,142.43260180000107,142.6853867000009,right,0.6000000000000001,1,1,0.5430192999992869,702782,001,2024-09-12_20h16.11.829,AdaptiveStaircaseProcedure,2024.1.5,None,2024-09-12 20h16.16.870979 +0530,
136,0.5,0.6000000000000001,142.69919610000034,,142.68552070000078,142.69919610000034,143.19899200000145,143.19899200000145,143.19899200000145,143.49839730000167,143.81727090000095,right,0.6000000000000001,1,1,0.6022845999996207,702782,001,2024-09-12_20h16.11.829,AdaptiveStaircaseProcedure,2024.1.5,None,2024-09-12 20h16.16.870979 +0530,
137,0.5,0.6000000000000001,143.8312807000002,,143.81740480000008,143.8312807000002,144.33239550000144,144.33239550000144,144.33239550000144,144.6472558000005,144.9158462000014,left,-0.6000000000000001,1,1,0.5752919000005932,702782,001,2024-09-12_20h16.11.829,AdaptiveStaircaseProcedure,2024.1.5,None,2024-09-12 20h16.16.870979 +0530,
138,0.5,0.10000000000000009,144.93114360000072,,144.91598710000108,144.93114360000072,145.4280600000002,145.4280600000002,145.4443635000007,145.72787659999995,145.96204710000166,right,0.10000000000000009,1,1,0.5295802000000549,702782,001,2024-09-12_20h16.11.829,AdaptiveStaircaseProcedure,2024.1.5,None,2024-09-12 20h16.16.870979 +0530,
139,0.5,0.10000000000000009,145.97700010000153,,145.96210410000094,145.97700010000153,146.47681710000143,146.47681710000143,146.47681710000143,146.77717940000002,147.21034860000145,left,-0.10000000000000009,1,1,0.7177236999996239,702782,001,2024-09-12_20h16.11.829,AdaptiveStaircaseProcedure,2024.1.5,None,2024-09-12 20h16.16.870979 +0530,
140,0.5,0.10000000000000009,147.2264842000004,,147.2104057000015,147.2264842000004,147.72597640000095,147.72597640000095,147.72597640000095,148.02878349999992,148.24597620000168,right,0.10000000000000009,0,0,0.5097329000000173,702782,001,2024-09-12_20h16.11.829,AdaptiveStaircaseProcedure,2024.1.5,None,2024-09-12 20h16.16.870979 +0530,
141,0.5,0.6000000000000001,148.26149040000018,,148.2461174,148.26149040000018,148.76108470000145,148.76108470000145,148.76108470000145,149.07646900000145,149.2959359000015,left,-0.6000000000000001,1,1,0.5254294999995182,702782,001,2024-09-12_20h16.11.829,AdaptiveStaircaseProcedure,2024.1.5,None,2024-09-12 20h16.16.870979 +0530,
142,0.5,0.6000000000000001,149.30968759999996,,149.29607110000143,149.30968759999996,149.80896140000004,149.80896140000004,149.80896140000004,150.10909770000035,150.3285659000012,left,-0.6000000000000001,1,1,0.5099553000000014,702782,001,2024-09-12_20h16.11.829,AdaptiveStaircaseProcedure,2024.1.5,None,2024-09-12 20h16.16.870979 +0530,
143,0.5,0.6000000000000001,150.35363490000054,,150.3287001000008,150.35363490000054,150.84267100000034,150.84267100000034,150.8581911000001,151.15790000000015,151.35947790000137,left,-0.6000000000000001,1,1,0.5005972999988444,702782,001,2024-09-12_20h16.11.829,AdaptiveStaircaseProcedure,2024.1.5,None,2024-09-12 20h16.16.870979 +0530,
144,0.5,0.10000000000000009,151.37866550000035,,151.3596150000012,151.37866550000035,151.87240470000143,151.87240470000143,151.88827980000133,152.18811040000037,152.28862670000126,right,0.10000000000000009,0,0,0.4054997999992338,702782,001,2024-09-12_20h16.11.829,AdaptiveStaircaseProcedure,2024.1.5,None,2024-09-12 20h16.16.870979 +0530,
145,0.5,0.6000000000000001,152.30482520000078,,152.2886862000014,152.30482520000078,152.78719790000105,152.78719790000105,152.8046033999999,153.0871356000007,153.23909129999993,left,-0.6000000000000001,1,1,0.4508077000009507,702782,001,2024-09-12_20h16.11.829,AdaptiveStaircaseProcedure,2024.1.5,None,2024-09-12 20h16.16.870979 +0530,
146,0.5,0.6000000000000001,153.25348420000046,,153.23915990000023,153.25348420000046,153.7534529000004,153.7534529000004,153.7534529000004,154.05309670000133,154.2202343000008,left,-0.6000000000000001,1,1,0.45727179999994405,702782,001,2024-09-12_20h16.11.829,AdaptiveStaircaseProcedure,2024.1.5,None,2024-09-12 20h16.16.870979 +0530,
147,0.5,0.6000000000000001,154.23680870000135,,154.22030440000162,154.23680870000135,154.71917080000094,154.71917080000094,154.73644420000164,155.01878710000165,155.13630560000092,right,0.6000000000000001,0,0,0.4014406999995117,702782,001,2024-09-12_20h16.11.829,AdaptiveStaircaseProcedure,2024.1.5,None,2024-09-12 20h16.16.870979 +0530,
148,0.5,1.1,155.15182390000155,,155.1363648000006,155.15182390000155,155.6512788,155.6512788,155.6512788,155.95076240000162,156.31893240000136,left,-1.1,1,1,0.665319300000192,702782,001,2024-09-12_20h16.11.829,AdaptiveStaircaseProcedure,2024.1.5,None,2024-09-12 20h16.16.870979 +0530,
149,0.5,1.1,156.33397190000142,,156.3190099000003,156.33397190000142,156.8205620000008,156.8205620000008,156.83583050000016,157.1333039000001,157.25147880000077,left,-1.1,1,1,0.42587189999903785,702782,001,2024-09-12_20h16.11.829,AdaptiveStaircaseProcedure,2024.1.5,None,2024-09-12 20h16.16.870979 +0530,
