stair.thisTrialN,stair.stepSize,stair.intensity,thisRow.t,notes,trial.started,fixation.started,grating.started,key_resp.started,fixation.stopped,grating.stopped,trial.stopped,corrAns,tilt,key_resp.corr,stair.response,key_resp.rt,participant,session,date,expName,psychopyVersion,frameRate,expStart,
0,2,20.0,0.032907099928706884,,0.012981399893760681,0.032907099928706884,0.5289330000523478,0.5289330000523478,0.5489316999446601,0.8312266999855638,1.1519056998658925,left,-20.0,1,1,0.6089955000206828,795241,001,2024-09-10_22h52.12.944,AdaptiveStaircaseProcedure,2024.1.5,None,2024-09-10 22h52.17.257475 +0530,
1,2,18.0,1.1642253999598324,,1.1519843998830765,1.1642253999598324,1.6640212000347674,1.6640212000347674,1.6640212000347674,1.9636736998800188,2.1980248999316245,left,-18.0,1,1,0.5308652000967413,795241,001,2024-09-10_22h52.12.944,AdaptiveStaircaseProcedure,2024.1.5,None,2024-09-10 22h52.17.257475 +0530,
2,2,16.0,2.213824799982831,,2.1980850000400096,2.213824799982831,2.696191000053659,2.696191000053659,2.7137670000083745,2.9962295999284834,3.1477574000600725,right,16.0,1,1,0.4468368000816554,795241,001,2024-09-10_22h52.12.944,AdaptiveStaircaseProcedure,2024.1.5,None,2024-09-10 22h52.17.257475 +0530,
3,2,14.0,3.1624797000549734,,3.147815400036052,3.1624797000549734,3.6624411998782307,3.6624411998782307,3.6624411998782307,3.9622617000713944,4.314494099933654,right,14.0,1,1,0.6379978000186384,795241,001,2024-09-10_22h52.12.944,AdaptiveStaircaseProcedure,2024.1.5,None,2024-09-10 22h52.17.257475 +0530,
4,2,12.0,4.328845799900591,,4.314586699940264,4.328845799900591,4.82754009985365,4.82754009985365,4.82754009985365,5.1273223999887705,5.311818900052458,left,-12.0,1,1,0.4679348999634385,795241,001,2024-09-10_22h52.12.944,AdaptiveStaircaseProcedure,2024.1.5,None,2024-09-10 22h52.17.257475 +0530,
5,2,10.0,5.326843899907544,,5.3118769999127835,5.326843899907544,5.826866999967024,5.826866999967024,5.826866999967024,6.128995900042355,6.481424099998549,right,10.0,1,1,0.6424004000145942,795241,001,2024-09-10_22h52.12.944,AdaptiveStaircaseProcedure,2024.1.5,None,2024-09-10 22h52.17.257475 +0530,
6,1,8.0,6.495446600019932,,6.481632799841464,6.495446600019932,6.994821100030094,6.994821100030094,6.994821100030094,7.310295399976894,7.4602999000344425,left,-8.0,0,0,0.45075739989988506,795241,001,2024-09-10_22h52.12.944,AdaptiveStaircaseProcedure,2024.1.5,None,2024-09-10 22h52.17.257475 +0530,
7,1,9.0,7.476945000002161,,7.460394399939105,7.476945000002161,7.975301899947226,7.975301899947226,7.991111799841747,8.27426839992404,8.725069199921563,right,9.0,1,1,0.73512679990381,795241,001,2024-09-10_22h52.12.944,AdaptiveStaircaseProcedure,2024.1.5,None,2024-09-10 22h52.17.257475 +0530,
8,1,9.0,8.740437400061637,,8.7251315000467,8.740437400061637,9.23989939992316,9.23989939992316,9.23989939992316,9.539554399903864,9.940186999971047,right,9.0,1,1,0.6952681001275778,795241,001,2024-09-10_22h52.12.944,AdaptiveStaircaseProcedure,2024.1.5,None,2024-09-10 22h52.17.257475 +0530,
9,1,9.0,9.956886699888855,,9.940244300058112,9.956886699888855,10.438697299920022,10.438697299920022,10.471934200031683,10.739015799947083,10.939964999910444,right,9.0,1,1,0.4855883000418544,795241,001,2024-09-10_22h52.12.944,AdaptiveStaircaseProcedure,2024.1.5,None,2024-09-10 22h52.17.257475 +0530,
10,1,8.0,10.955457299947739,,10.940025500021875,10.955457299947739,11.455094499979168,11.455094499979168,11.471579199889675,11.770703099900857,11.922130699967965,right,8.0,1,1,0.4649692999664694,795241,001,2024-09-10_22h52.12.944,AdaptiveStaircaseProcedure,2024.1.5,None,2024-09-10 22h52.17.257475 +0530,
11,1,8.0,11.937273100018501,,11.922216099919751,11.937273100018501,12.437254499876872,12.437254499876872,12.437254499876872,12.737184599973261,12.938211400061846,right,8.0,1,1,0.49999059992842376,795241,001,2024-09-10_22h52.12.944,AdaptiveStaircaseProcedure,2024.1.5,None,2024-09-10 22h52.17.257475 +0530,
12,1,8.0,12.952920000068843,,12.938273000065237,12.952920000068843,13.454030999913812,13.454030999913812,13.454030999913812,13.752316399943084,14.136907199863344,left,-8.0,1,1,0.6715980998706073,795241,001,2024-09-10_22h52.12.944,AdaptiveStaircaseProcedure,2024.1.5,None,2024-09-10 22h52.17.257475 +0530,
13,1,7.0,14.152059699874371,,14.136989099904895,14.152059699874371,14.651714700041339,14.651714700041339,14.651714700041339,14.951224699849263,15.219014399917796,left,-7.0,1,1,0.5552464001812041,795241,001,2024-09-10_22h52.12.944,AdaptiveStaircaseProcedure,2024.1.5,None,2024-09-10 22h52.17.257475 +0530,
14,1,7.0,15.23466209997423,,15.219071799889207,15.23466209997423,15.717366500059143,15.717366500059143,15.734184799948707,16.017467000056058,16.23511300003156,right,7.0,1,1,0.502876500133425,795241,001,2024-09-10_22h52.12.944,AdaptiveStaircaseProcedure,2024.1.5,None,2024-09-10 22h52.17.257475 +0530,
15,1,7.0,16.25084439991042,,16.23520529991947,16.25084439991042,16.75048749987036,16.75048749987036,16.75048749987036,17.04926209989935,17.350783499889076,left,-7.0,1,1,0.5929111000150442,795241,001,2024-09-10_22h52.12.944,AdaptiveStaircaseProcedure,2024.1.5,None,2024-09-10 22h52.17.257475 +0530,
16,1,6.0,17.36654039984569,,17.35088160005398,17.36654039984569,17.865769400028512,17.865769400028512,17.865769400028512,18.165688700042665,18.853010499849916,right,6.0,1,1,0.984682499896735,795241,001,2024-09-10_22h52.12.944,AdaptiveStaircaseProcedure,2024.1.5,None,2024-09-10 22h52.17.257475 +0530,
17,1,6.0,18.86640469986014,,18.853174699936062,18.86640469986014,19.36506829992868,19.36506829992868,19.38127000001259,19.68035849998705,20.002258399967104,right,6.0,1,1,0.6316480999812484,795241,001,2024-09-10_22h52.12.944,AdaptiveStaircaseProcedure,2024.1.5,None,2024-09-10 22h52.17.257475 +0530,
18,1,6.0,20.01604159991257,,20.002391000045463,20.01604159991257,20.516811500070617,20.516811500070617,20.516811500070617,20.829285999992862,22.699378499994054,right,6.0,1,1,2.1789913000538945,795241,001,2024-09-10_22h52.12.944,AdaptiveStaircaseProcedure,2024.1.5,None,2024-09-10 22h52.17.257475 +0530,
19,1,5.0,22.714578100014478,,22.69951399997808,22.714578100014478,23.210973100038245,23.210973100038245,23.2269528999459,23.52675580000505,23.74506239988841,right,5.0,1,1,0.5224157001357526,795241,001,2024-09-10_22h52.12.944,AdaptiveStaircaseProcedure,2024.1.5,None,2024-09-10 22h52.17.257475 +0530,
20,1,5.0,23.759886299958453,,23.745119799859822,23.759886299958453,24.259525599889457,24.259525599889457,24.259525599889457,24.560450799996033,25.42611959995702,left,-5.0,1,1,1.1592457999940962,795241,001,2024-09-10_22h52.12.944,AdaptiveStaircaseProcedure,2024.1.5,None,2024-09-10 22h52.17.257475 +0530,
21,1,5.0,25.44214820000343,,25.42617930006236,25.44214820000343,25.941873699892312,25.941873699892312,25.941873699892312,26.25732439989224,26.762036900036037,left,-5.0,1,1,0.8150720000267029,795241,001,2024-09-10_22h52.12.944,AdaptiveStaircaseProcedure,2024.1.5,None,2024-09-10 22h52.17.257475 +0530,
22,1,4.0,26.777309600031003,,26.76217669993639,26.777309600031003,27.27369079994969,27.27369079994969,27.290099599864334,27.57340390002355,28.789255399955437,left,-4.0,1,1,1.5022897999733686,795241,001,2024-09-10_22h52.12.944,AdaptiveStaircaseProcedure,2024.1.5,None,2024-09-10 22h52.17.257475 +0530,
23,1,4.0,28.805934299947694,,28.789324400015175,28.805934299947694,29.290947899920866,29.290947899920866,29.30651140003465,29.605266199912876,29.90586319984868,right,4.0,1,1,0.6123442000243813,795241,001,2024-09-10_22h52.12.944,AdaptiveStaircaseProcedure,2024.1.5,None,2024-09-10 22h52.17.257475 +0530,
24,1,4.0,29.92091999994591,,29.90594709990546,29.92091999994591,30.420487500028685,30.420487500028685,30.420487500028685,30.71997829992324,30.9047767999582,left,-4.0,1,1,0.4670428999233991,795241,001,2024-09-10_22h52.12.944,AdaptiveStaircaseProcedure,2024.1.5,None,2024-09-10 22h52.17.257475 +0530,
25,1,3.0,30.919968500034884,,30.904849899932742,30.919968500034884,31.419375699944794,31.419375699944794,31.419375699944794,31.719066199846566,33.10302719986066,left,-3.0,1,1,1.6806717000436038,795241,001,2024-09-10_22h52.12.944,AdaptiveStaircaseProcedure,2024.1.5,None,2024-09-10 22h52.17.257475 +0530,
26,1,3.0,33.11808509984985,,33.103100599953905,33.11808509984985,33.61828489997424,33.61828489997424,33.61828489997424,33.91955869994126,34.501848299987614,right,3.0,1,1,0.8792943998705596,795241,001,2024-09-10_22h52.12.944,AdaptiveStaircaseProcedure,2024.1.5,None,2024-09-10 22h52.17.257475 +0530,
27,1,3.0,34.51624120003544,,34.50190759985708,34.51624120003544,35.016872599953786,35.016872599953786,35.016872599953786,35.315609900048,35.73369050002657,left,-3.0,1,1,0.7127745000179857,795241,001,2024-09-10_22h52.12.944,AdaptiveStaircaseProcedure,2024.1.5,None,2024-09-10 22h52.17.257475 +0530,
28,1,2.0,35.74869000003673,,35.733746899990365,35.74869000003673,36.24929509987123,36.24929509987123,36.24929509987123,36.54829890001565,37.61815920006484,left,-2.0,1,1,1.3610380000900477,795241,001,2024-09-10_22h52.12.944,AdaptiveStaircaseProcedure,2024.1.5,None,2024-09-10 22h52.17.257475 +0530,
29,1,2.0,37.6341033000499,,37.61829110002145,37.6341033000499,38.13039109995589,38.13039109995589,38.14662520005368,38.43225149996579,39.29837660002522,right,2.0,1,1,1.1538625999819487,795241,001,2024-09-10_22h52.12.944,AdaptiveStaircaseProcedure,2024.1.5,None,2024-09-10 22h52.17.257475 +0530,
30,1,2.0,39.312505499925464,,39.29845379991457,39.312505499925464,39.812384200049564,39.812384200049564,39.812384200049564,40.11153499991633,41.58153510000557,left,-2.0,1,1,1.7668719000648707,795241,001,2024-09-10_22h52.12.944,AdaptiveStaircaseProcedure,2024.1.5,None,2024-09-10 22h52.17.257475 +0530,
31,1,1.0,41.5968855000101,,41.581677299924195,41.5968855000101,42.093348799971864,42.093348799971864,42.10963790002279,42.39602650003508,42.87699200003408,left,-1.0,1,1,0.772999299922958,795241,001,2024-09-10_22h52.12.944,AdaptiveStaircaseProcedure,2024.1.5,None,2024-09-10 22h52.17.257475 +0530,
32,1,1.0,42.891816599993035,,42.87704920000397,42.891816599993035,43.39167709997855,43.39167709997855,43.39167709997855,43.69396990002133,45.196173100033775,left,-1.0,1,1,1.8013045000843704,795241,001,2024-09-10_22h52.12.944,AdaptiveStaircaseProcedure,2024.1.5,None,2024-09-10 22h52.17.257475 +0530,
33,0.5,1.0,45.20881189987995,,45.196319999871776,45.20881189987995,45.70648920000531,45.70648920000531,45.72325220005587,46.00606200005859,46.41026689996943,right,1.0,0,0,0.6940827998332679,795241,001,2024-09-10_22h52.12.944,AdaptiveStaircaseProcedure,2024.1.5,None,2024-09-10 22h52.17.257475 +0530,
34,0.5,1.5,46.42576009989716,,46.41041229991242,46.42576009989716,46.921904999995604,46.921904999995604,46.938398899976164,47.22497550002299,47.293011399917305,left,-1.5,1,1,0.3613902002107352,795241,001,2024-09-10_22h52.12.944,AdaptiveStaircaseProcedure,2024.1.5,None,2024-09-10 22h52.17.257475 +0530,
35,0.5,1.5,47.30531399999745,,47.29314660001546,47.30531399999745,47.80424540000968,47.80424540000968,47.80424540000968,48.121232100063935,48.4549348000437,right,1.5,0,0,0.6362795999739319,795241,001,2024-09-10_22h52.12.944,AdaptiveStaircaseProcedure,2024.1.5,None,2024-09-10 22h52.17.257475 +0530,
36,0.5,2.0,48.470029999967664,,48.454993000021204,48.470029999967664,48.95702129998244,48.95702129998244,48.971998600056395,49.269482099916786,49.33681620005518,right,2.0,0,0,0.372012099949643,795241,001,2024-09-10_22h52.12.944,AdaptiveStaircaseProcedure,2024.1.5,None,2024-09-10 22h52.17.257475 +0530,
37,0.5,2.5,49.35329100000672,,49.33687429991551,49.35329100000672,49.83676610002294,49.83676610002294,49.85390800004825,50.13529499992728,50.55298759997822,left,-2.5,1,1,0.7105340000707656,795241,001,2024-09-10_22h52.12.944,AdaptiveStaircaseProcedure,2024.1.5,None,2024-09-10 22h52.17.257475 +0530,
38,0.5,2.5,50.56811710004695,,50.553055099910125,50.56811710004695,51.052637399872765,51.052637399872765,51.06850339984521,51.36726909992285,51.534881700063124,right,2.5,0,0,0.46682239999063313,795241,001,2024-09-10_22h52.12.944,AdaptiveStaircaseProcedure,2024.1.5,None,2024-09-10 22h52.17.257475 +0530,
39,0.5,3.0,51.5510978999082,,51.53494099993259,51.5510978999082,52.044394499855116,52.044394499855116,52.06407699990086,52.350721299881116,52.65501350001432,right,3.0,1,1,0.6027365999761969,795241,001,2024-09-10_22h52.12.944,AdaptiveStaircaseProcedure,2024.1.5,None,2024-09-10 22h52.17.257475 +0530,
40,0.5,3.0,52.668666099896654,,52.65515020000748,52.668666099896654,53.16681859991513,53.16681859991513,53.185735299950466,53.46817529993132,53.65432339999825,right,3.0,1,1,0.48058909992687404,795241,001,2024-09-10_22h52.12.944,AdaptiveStaircaseProcedure,2024.1.5,None,2024-09-10 22h52.17.257475 +0530,
41,0.5,3.0,53.667372199939564,,53.654456899967045,53.667372199939564,54.16487420001067,54.16487420001067,54.182221699971706,54.46438120002858,54.819484299980104,right,3.0,1,1,0.6440944999922067,795241,001,2024-09-10_22h52.12.944,AdaptiveStaircaseProcedure,2024.1.5,None,2024-09-10 22h52.17.257475 +0530,
42,0.5,2.5,54.83300970005803,,54.81962660001591,54.83300970005803,55.33024389995262,55.33024389995262,55.347665099892765,55.630139499902725,56.08490090002306,left,-2.5,1,1,0.7421919999178499,795241,001,2024-09-10_22h52.12.944,AdaptiveStaircaseProcedure,2024.1.5,None,2024-09-10 22h52.17.257475 +0530,
43,0.5,2.5,56.098671099869534,,56.0850374000147,56.098671099869534,56.596471099881455,56.596471099881455,56.61339810001664,56.90015850006603,57.11410510004498,left,-2.5,1,1,0.5147329999599606,795241,001,2024-09-10_22h52.12.944,AdaptiveStaircaseProcedure,2024.1.5,None,2024-09-10 22h52.17.257475 +0530,
44,0.5,2.5,57.12893190002069,,57.11416259990074,57.12893190002069,57.61527169984765,57.61527169984765,57.6292580999434,57.928113400004804,58.212458400055766,right,2.5,1,1,0.5901949000544846,795241,001,2024-09-10_22h52.12.944,AdaptiveStaircaseProcedure,2024.1.5,None,2024-09-10 22h52.17.257475 +0530,
45,0.5,2.0,58.22765640006401,,58.212515600025654,58.22765640006401,58.71437319996767,58.71437319996767,58.73000829992816,59.03056859993376,59.13186369999312,left,-2.0,0,0,0.4089403999969363,795241,001,2024-09-10_22h52.12.944,AdaptiveStaircaseProcedure,2024.1.5,None,2024-09-10 22h52.17.257475 +0530,
46,0.5,2.5,59.14750379999168,,59.132027599960566,59.14750379999168,59.64497040002607,59.64497040002607,59.66087689995766,59.95975170005113,60.16097169998102,left,-2.5,1,1,0.5023320000618696,795241,001,2024-09-10_22h52.12.944,AdaptiveStaircaseProcedure,2024.1.5,None,2024-09-10 22h52.17.257475 +0530,
47,0.5,2.5,60.176195400068536,,60.16102900006808,60.176195400068536,60.67566129984334,60.67566129984334,60.67566129984334,60.97516729985364,62.24543969985098,left,-2.5,1,1,1.566132599953562,795241,001,2024-09-10_22h52.12.944,AdaptiveStaircaseProcedure,2024.1.5,None,2024-09-10 22h52.17.257475 +0530,
48,0.5,2.5,62.26137059996836,,62.24557969998568,62.26137059996836,62.75738499988802,62.75738499988802,62.77331619989127,63.06029739999212,63.54058909998275,right,2.5,0,0,0.778262099949643,795241,001,2024-09-10_22h52.12.944,AdaptiveStaircaseProcedure,2024.1.5,None,2024-09-10 22h52.17.257475 +0530,
49,0.5,3.0,63.556547899963334,,63.540648399852216,63.556547899963334,64.0415384999942,64.0415384999942,64.05942779988982,64.33972359984182,64.53984389989637,right,3.0,1,1,0.497268799925223,795241,001,2024-09-10_22h52.12.944,AdaptiveStaircaseProcedure,2024.1.5,None,2024-09-10 22h52.17.257475 +0530,
50,0.5,3.0,64.55562959983945,,64.53990129986778,64.55562959983945,65.03819409990683,65.03819409990683,65.05517659988254,65.33743930002674,66.75861230003648,left,-3.0,0,0,1.7146023001987487,795241,001,2024-09-10_22h52.12.944,AdaptiveStaircaseProcedure,2024.1.5,None,2024-09-10 22h52.17.257475 +0530,
51,0.5,3.5,66.77202180004679,,66.75875140004791,66.77202180004679,67.26931619993411,67.26931619993411,67.28641189984046,67.57167249987833,68.07242699991912,left,-3.5,1,1,0.7874835999682546,795241,001,2024-09-10_22h52.12.944,AdaptiveStaircaseProcedure,2024.1.5,None,2024-09-10 22h52.17.257475 +0530,
52,0.5,3.5,68.09011789993383,,68.07256409991533,68.09011789993383,68.58870929991826,68.58870929991826,68.60415249993093,68.90273380000144,69.3361966998782,right,3.5,1,1,0.740692500025034,795241,001,2024-09-10_22h52.12.944,AdaptiveStaircaseProcedure,2024.1.5,None,2024-09-10 22h52.17.257475 +0530,
53,0.5,3.5,69.35247949999757,,69.33628849987872,69.35247949999757,69.85058870003559,69.85058870003559,69.8669840998482,70.1505487000104,71.03315839986317,right,3.5,1,1,1.1699159001000226,795241,001,2024-09-10_22h52.12.944,AdaptiveStaircaseProcedure,2024.1.5,None,2024-09-10 22h52.17.257475 +0530,
54,0.5,3.0,71.04967939993367,,71.03321919986047,71.04967939993367,71.53234319994226,71.53234319994226,71.54950589989312,71.83161249989644,72.6826996000018,left,-3.0,1,1,1.1489945000503212,795241,001,2024-09-10_22h52.12.944,AdaptiveStaircaseProcedure,2024.1.5,None,2024-09-10 22h52.17.257475 +0530,
55,0.5,3.0,72.69755519996397,,72.68276140000671,72.69755519996397,73.18426899984479,73.18426899984479,73.19991289987229,73.4996648998931,75.06652219989337,left,-3.0,1,1,1.875431700143963,795241,001,2024-09-10_22h52.12.944,AdaptiveStaircaseProcedure,2024.1.5,None,2024-09-10 22h52.17.257475 +0530,
56,0.5,3.0,75.0820869000163,,75.06665559997782,75.0820869000163,75.5817892998457,75.5817892998457,75.59740129997954,75.89696449995972,76.53242259984836,left,-3.0,1,1,0.9410523001570255,795241,001,2024-09-10_22h52.12.944,AdaptiveStaircaseProcedure,2024.1.5,None,2024-09-10 22h52.17.257475 +0530,
57,0.5,2.5,76.54763919999823,,76.53256809990853,76.54763919999823,77.04411879996769,77.04411879996769,77.06027000001632,77.34378289990127,77.83045919984579,left,-2.5,0,0,0.7799986999016255,795241,001,2024-09-10_22h52.12.944,AdaptiveStaircaseProcedure,2024.1.5,None,2024-09-10 22h52.17.257475 +0530,
58,0.5,3.0,77.84636249998584,,77.83060429990292,77.84636249998584,78.34574689995497,78.34574689995497,78.36177109996788,78.66127509996295,79.6251568000298,right,3.0,1,1,1.274233300006017,795241,001,2024-09-10_22h52.12.944,AdaptiveStaircaseProcedure,2024.1.5,None,2024-09-10 22h52.17.257475 +0530,
59,0.5,3.0,79.64152719988488,,79.62521429988556,79.64152719988488,80.12388690002263,80.12388690002263,80.15189890004694,80.42436710000038,81.79096199991181,right,3.0,1,1,1.656458399957046,795241,001,2024-09-10_22h52.12.944,AdaptiveStaircaseProcedure,2024.1.5,None,2024-09-10 22h52.17.257475 +0530,
60,0.5,3.0,81.80572309996933,,81.79102810006589,81.80572309996933,82.30560630001128,82.30560630001128,82.30560630001128,82.60575350001454,84.25928739993833,left,-3.0,0,0,1.9453634000383317,795241,001,2024-09-10_22h52.12.944,AdaptiveStaircaseProcedure,2024.1.5,None,2024-09-10 22h52.17.257475 +0530,
61,0.5,3.5,84.27249850006774,,84.25942859984934,84.27249850006774,84.77081099990755,84.77081099990755,84.78815259994008,85.0690947000403,86.32336529996246,right,3.5,1,1,1.539809900103137,795241,001,2024-09-10_22h52.12.944,AdaptiveStaircaseProcedure,2024.1.5,None,2024-09-10 22h52.17.257475 +0530,
62,0.5,3.5,86.33767449995503,,86.32350150006823,86.33767449995503,86.83426759997383,86.83426759997383,86.85163419996388,87.13417349988595,88.15167140006088,right,3.5,1,1,1.3145538000389934,795241,001,2024-09-10_22h52.12.944,AdaptiveStaircaseProcedure,2024.1.5,None,2024-09-10 22h52.17.257475 +0530,
63,0.5,3.5,88.16655840002932,,88.15173549996689,88.16655840002932,88.66613959986717,88.66613959986717,88.66613959986717,88.96553119993769,89.58697999990545,left,-3.5,0,0,0.914738800143823,795241,001,2024-09-10_22h52.12.944,AdaptiveStaircaseProcedure,2024.1.5,None,2024-09-10 22h52.17.257475 +0530,
64,0.5,4.0,89.60105809988454,,89.58712369995192,89.60105809988454,90.09786639991216,90.09786639991216,90.11525819986127,90.39767049998045,91.4815179000143,right,4.0,1,1,1.3718733000569046,795241,001,2024-09-10_22h52.12.944,AdaptiveStaircaseProcedure,2024.1.5,None,2024-09-10 22h52.17.257475 +0530,
65,0.5,4.0,91.49674899992533,,91.48157469998114,91.49674899992533,91.9962164000608,91.9962164000608,91.9962164000608,92.29687609989196,92.66392469988205,right,4.0,1,1,0.6639409000054002,795241,001,2024-09-10_22h52.12.944,AdaptiveStaircaseProcedure,2024.1.5,None,2024-09-10 22h52.17.257475 +0530,
66,0.5,4.0,92.67938970006071,,92.66398219997063,92.67938970006071,93.16440050001256,93.16440050001256,93.18032439984381,93.4640456000343,94.6979972999543,left,-4.0,1,1,1.522807199973613,795241,001,2024-09-10_22h52.12.944,AdaptiveStaircaseProcedure,2024.1.5,None,2024-09-10 22h52.17.257475 +0530,
67,0.5,3.5,94.71194269997068,,94.69813979999162,94.71194269997068,95.2102854999248,95.2102854999248,95.22649220004678,95.51018800004385,95.996552699944,left,-3.5,1,1,0.7700551999732852,795241,001,2024-09-10_22h52.12.944,AdaptiveStaircaseProcedure,2024.1.5,None,2024-09-10 22h52.17.257475 +0530,
68,0.5,3.5,96.01310259988531,,95.99668859993108,96.01310259988531,96.50907959998585,96.50907959998585,96.5251486999914,96.80861659999937,97.59222340001725,right,3.5,1,1,1.0822024000808597,795241,001,2024-09-10_22h52.12.944,AdaptiveStaircaseProcedure,2024.1.5,None,2024-09-10 22h52.17.257475 +0530,
69,0.5,3.5,97.60832230001688,,97.5922904999461,97.60832230001688,98.10761549999006,98.10761549999006,98.12382419989444,98.40730539988726,99.87601300003007,left,-3.5,0,0,1.7654634998179972,795241,001,2024-09-10_22h52.12.944,AdaptiveStaircaseProcedure,2024.1.5,None,2024-09-10 22h52.17.257475 +0530,
70,0.5,4.0,99.8914691999089,,99.87614040006883,99.8914691999089,100.39104179991409,100.39104179991409,100.40566389984451,100.69171019992791,101.09325779997744,left,-4.0,1,1,0.6914200000464916,795241,001,2024-09-10_22h52.12.944,AdaptiveStaircaseProcedure,2024.1.5,None,2024-09-10 22h52.17.257475 +0530,
71,0.5,4.0,101.10720749991015,,101.09344069985673,101.10720749991015,101.60644169989973,101.60644169989973,101.60644169989973,101.90628109988756,102.19232779997401,right,4.0,0,0,0.5765471998602152,795241,001,2024-09-10_22h52.12.944,AdaptiveStaircaseProcedure,2024.1.5,None,2024-09-10 22h52.17.257475 +0530,
72,0.5,4.5,102.20591220003553,,102.1924735000357,102.20591220003553,102.70392200001515,102.70392200001515,102.72111699986272,103.00238980003633,103.3576189999003,right,4.5,0,0,0.6502170001622289,795241,001,2024-09-10_22h52.12.944,AdaptiveStaircaseProcedure,2024.1.5,None,2024-09-10 22h52.17.257475 +0530,
73,0.5,5.0,103.3720271999482,,103.35776089993306,103.3720271999482,103.86846500006504,103.86846500006504,103.8855639998801,104.16819959995337,104.78562700003386,right,5.0,1,1,0.9132501999847591,795241,001,2024-09-10_22h52.12.944,AdaptiveStaircaseProcedure,2024.1.5,None,2024-09-10 22h52.17.257475 +0530,
74,0.5,5.0,104.8007708999794,,104.78568319999613,104.8007708999794,105.30037279985845,105.30037279985845,105.30037279985845,105.60027789999731,106.05589199997485,left,-5.0,1,1,0.752278900006786,795241,001,2024-09-10_22h52.12.944,AdaptiveStaircaseProcedure,2024.1.5,None,2024-09-10 22h52.17.257475 +0530,
75,0.5,5.0,106.06905439984985,,106.05606719991192,106.06905439984985,106.5689771999605,106.5689771999605,106.5689771999605,106.86801650002599,107.5875790999271,right,5.0,1,1,1.0153248000424355,795241,001,2024-09-10_22h52.12.944,AdaptiveStaircaseProcedure,2024.1.5,None,2024-09-10 22h52.17.257475 +0530,
76,0.5,4.5,107.60036369995214,,107.58773080003448,107.60036369995214,108.09879259997979,108.09879259997979,108.11442729993723,108.41398869990371,108.63603969989344,left,-4.5,1,1,0.5278078000992537,795241,001,2024-09-10_22h52.12.944,AdaptiveStaircaseProcedure,2024.1.5,None,2024-09-10 22h52.17.257475 +0530,
77,0.5,4.5,108.65013249986805,,108.63617659988813,108.65013249986805,109.1467841998674,109.1467841998674,109.16438520001248,109.44869669992477,109.65069949999452,right,4.5,0,0,0.4969173001591116,795241,001,2024-09-10_22h52.12.944,AdaptiveStaircaseProcedure,2024.1.5,None,2024-09-10 22h52.17.257475 +0530,
78,0.5,5.0,109.66685399995185,,109.65084819984622,109.66685399995185,110.16313040000387,110.16313040000387,110.17911809985526,110.46259139990434,110.90097730001435,right,5.0,1,1,0.728540200041607,795241,001,2024-09-10_22h52.12.944,AdaptiveStaircaseProcedure,2024.1.5,None,2024-09-10 22h52.17.257475 +0530,
79,0.5,5.0,110.91468439996243,,110.90111149987206,110.91468439996243,111.41248339996673,111.41248339996673,111.42981890006922,111.72814009990543,111.81233239988796,right,5.0,1,1,0.3953997001517564,795241,001,2024-09-10_22h52.12.944,AdaptiveStaircaseProcedure,2024.1.5,None,2024-09-10 22h52.17.257475 +0530,
80,0.5,5.0,111.8280994000379,,111.81240649987012,111.8280994000379,112.32774939993396,112.32774939993396,112.32774939993396,112.63053369987756,113.04561689984985,right,5.0,1,1,0.7112523000687361,795241,001,2024-09-10_22h52.12.944,AdaptiveStaircaseProcedure,2024.1.5,None,2024-09-10 22h52.17.257475 +0530,
81,0.5,4.5,113.06147499987856,,113.04571329988539,113.06147499987856,113.54570690006949,113.54570690006949,113.56333949998952,113.84474450000562,113.96477319998667,right,4.5,1,1,0.4138340998906642,795241,001,2024-09-10_22h52.12.944,AdaptiveStaircaseProcedure,2024.1.5,None,2024-09-10 22h52.17.257475 +0530,
82,0.5,4.5,113.97797439992428,,113.96491209999658,113.97797439992428,114.47532389988191,114.47532389988191,114.49263820005581,114.77726119989529,115.22996210004203,right,4.5,1,1,0.746749599929899,795241,001,2024-09-10_22h52.12.944,AdaptiveStaircaseProcedure,2024.1.5,None,2024-09-10 22h52.17.257475 +0530,
83,0.5,4.5,115.24340460007079,,115.2301024000626,115.24340460007079,115.74053549999371,115.74053549999371,115.75781290000305,116.04253549990244,116.27803589985706,right,4.5,1,1,0.5344193000346422,795241,001,2024-09-10_22h52.12.944,AdaptiveStaircaseProcedure,2024.1.5,None,2024-09-10 22h52.17.257475 +0530,
84,0.5,4.0,116.29393649986014,,116.27817619987763,116.29393649986014,116.7902973999735,116.7902973999735,116.80657939985394,117.08979219989851,117.42383220000193,left,-4.0,1,1,0.6169320000335574,795241,001,2024-09-10_22h52.12.944,AdaptiveStaircaseProcedure,2024.1.5,None,2024-09-10 22h52.17.257475 +0530,
85,0.5,4.0,117.43900649994612,,117.42389009986073,117.43900649994612,117.9385053999722,117.9385053999722,117.9385053999722,118.23858170001768,118.58981149992906,right,4.0,1,1,0.6501671001315117,795241,001,2024-09-10_22h52.12.944,AdaptiveStaircaseProcedure,2024.1.5,None,2024-09-10 22h52.17.257475 +0530,
86,0.5,4.0,118.60468009999022,,118.58987929997966,118.60468009999022,119.1052778000012,119.1052778000012,119.1052778000012,119.40413379995152,119.84116249997169,right,4.0,1,1,0.7196277999319136,795241,001,2024-09-10_22h52.12.944,AdaptiveStaircaseProcedure,2024.1.5,None,2024-09-10 22h52.17.257475 +0530,
87,0.5,3.5,119.85729109984823,,119.8413013999816,119.85729109984823,120.3555439999327,120.3555439999327,120.37345449998975,120.65544399991632,120.92353979987092,left,-3.5,1,1,0.5526901001576334,795241,001,2024-09-10_22h52.12.944,AdaptiveStaircaseProcedure,2024.1.5,None,2024-09-10 22h52.17.257475 +0530,
88,0.5,3.5,120.93946789996698,,120.92371260002255,120.93946789996698,121.43614130001515,121.43614130001515,121.45238459995016,121.73576209996827,121.95247150002979,left,-3.5,1,1,0.5004247000906616,795241,001,2024-09-10_22h52.12.944,AdaptiveStaircaseProcedure,2024.1.5,None,2024-09-10 22h52.17.257475 +0530,
89,0.5,3.5,121.96928479988128,,121.95254009985365,121.96928479988128,122.45142839988694,122.45142839988694,122.48437409987673,122.75096419989131,123.08823550003581,right,3.5,1,1,0.6260726000182331,795241,001,2024-09-10_22h52.12.944,AdaptiveStaircaseProcedure,2024.1.5,None,2024-09-10 22h52.17.257475 +0530,
90,0.5,3.0,123.10395919997245,,123.08837729995139,123.10395919997245,123.60373319988139,123.60373319988139,123.61964449984953,123.91919439984486,124.0874623998534,right,3.0,1,1,0.47880020015873015,795241,001,2024-09-10_22h52.12.944,AdaptiveStaircaseProcedure,2024.1.5,None,2024-09-10 22h52.17.257475 +0530,
91,0.5,3.0,124.10295640002005,,124.08763429988176,124.10295640002005,124.59965039999224,124.59965039999224,124.61569899995811,124.89947539987043,125.20358669990674,left,-3.0,1,1,0.5918493000790477,795241,001,2024-09-10_22h52.12.944,AdaptiveStaircaseProcedure,2024.1.5,None,2024-09-10 22h52.17.257475 +0530,
92,0.5,3.0,125.21806999994442,,125.20374909997918,125.21806999994442,125.71774109988473,125.71774109988473,125.71774109988473,126.01739559997804,126.13789339992218,left,-3.0,1,1,0.4173482998739928,795241,001,2024-09-10_22h52.12.944,AdaptiveStaircaseProcedure,2024.1.5,None,2024-09-10 22h52.17.257475 +0530,
93,0.5,2.5,126.14980709995143,,126.13803679984994,126.14980709995143,126.64952869992703,126.64952869992703,126.64952869992703,126.94941650005057,127.2843947999645,right,2.5,1,1,0.6221843999810517,795241,001,2024-09-10_22h52.12.944,AdaptiveStaircaseProcedure,2024.1.5,None,2024-09-10 22h52.17.257475 +0530,
94,0.5,2.5,127.30040099984035,,127.28452949994244,127.30040099984035,127.79649950005114,127.79649950005114,127.81265019997954,128.0958990000654,128.33002409990877,right,2.5,1,1,0.5185385001823306,795241,001,2024-09-10_22h52.12.944,AdaptiveStaircaseProcedure,2024.1.5,None,2024-09-10 22h52.17.257475 +0530,
95,0.5,2.5,128.3463353998959,,128.33010519994423,128.3463353998959,128.84567629988305,128.84567629988305,128.86177149997093,129.14541779994033,129.71678119990975,right,2.5,0,0,0.8649800999555737,795241,001,2024-09-10_22h52.12.944,AdaptiveStaircaseProcedure,2024.1.5,None,2024-09-10 22h52.17.257475 +0530,
96,0.5,3.0,129.7303724999074,,129.71692669996992,129.7303724999074,130.22709880000912,130.22709880000912,130.24444280005991,130.52700979984365,131.06458149990067,left,-3.0,1,1,0.8230820999015123,795241,001,2024-09-10_22h52.12.944,AdaptiveStaircaseProcedure,2024.1.5,None,2024-09-10 22h52.17.257475 +0530,
97,0.5,3.0,131.08004290005192,,131.06471690000035,131.08004290005192,131.576306700008,131.576306700008,131.59280380001292,131.87937980005518,132.6924564000219,left,-3.0,1,1,1.1128372999373823,795241,001,2024-09-10_22h52.12.944,AdaptiveStaircaseProcedure,2024.1.5,None,2024-09-10 22h52.17.257475 +0530,
98,0.5,3.0,132.70912400004454,,132.69251449988224,132.70912400004454,133.19373329984955,133.19373329984955,133.21121519990265,133.49320119991899,133.7459327999968,left,-3.0,1,1,0.5382463000714779,795241,001,2024-09-10_22h52.12.944,AdaptiveStaircaseProcedure,2024.1.5,None,2024-09-10 22h52.17.257475 +0530,
99,0.5,2.5,133.75977059989236,,133.7460882999003,133.75977059989236,134.25665570003912,134.25665570003912,134.27422589994967,134.55964759993367,134.72720819991082,right,2.5,0,0,0.4591972001362592,795241,001,2024-09-10_22h52.12.944,AdaptiveStaircaseProcedure,2024.1.5,None,2024-09-10 22h52.17.257475 +0530,
