study_word,test,reference,old_new,trials.thisRepN,trials.thisTrialN,trials.thisN,trials.thisIndex,trials_2.thisRepN,trials_2.thisTrialN,trials_2.thisN,trials_2.thisIndex,thisRow.t,notes,trial.started,text.started,slider.started,trial.stopped,slider.response,slider.rt,test.started,text_2.started,textbox.started,text_3.started,mouse.started,test.stopped,textbox.text,mouse.x,mouse.y,mouse.leftButton,mouse.midButton,mouse.rightButton,mouse.time,mouse.clicked_name,participant,session,date,expName,psychopyVersion,frameRate,expStart,
laptop,,,,0,0,0,5,,,,,0.033599099959246814,,0.007387899910099804,0.033599099959246814,0.033599099959246814,2.607955899904482,1,2.577254300005734,,,,,,,,,,,,,,,04,001,2024-10-25_11h33.17.549,WordPrimingExperiment,2024.1.5,None,2024-10-25 11h33.38.550700 +0530,
board,,,,0,1,1,4,,,,,2.627179899951443,,2.610874999896623,2.627179899951443,2.627179899951443,5.539211499970406,1.0222222222222221,2.9044396999524906,,,,,,,,,,,,,,,04,001,2024-10-25_11h33.17.549,WordPrimingExperiment,2024.1.5,None,2024-10-25 11h33.38.550700 +0530,
cruise,,,,0,2,2,11,,,,,5.5560877999523655,,5.539519499987364,5.5560877999523655,5.5560877999523655,7.58672179991845,1.0222222222222221,2.0239022999303415,,,,,,,,,,,,,,,04,001,2024-10-25_11h33.17.549,WordPrimingExperiment,2024.1.5,None,2024-10-25 11h33.38.550700 +0530,
pastry,,,,0,3,3,9,,,,,7.602246699971147,,7.58699469990097,7.602246699971147,7.602246699971147,9.085178999928758,1.0222222222222221,1.4763172999955714,,,,,,,,,,,,,,,04,001,2024-10-25_11h33.17.549,WordPrimingExperiment,2024.1.5,None,2024-10-25 11h33.38.550700 +0530,
police,,,,0,4,4,12,,,,,9.09942709992174,,9.085400199983269,9.09942709992174,9.09942709992174,10.18411669996567,1.0222222222222221,1.0783729000249878,,,,,,,,,,,,,,,04,001,2024-10-25_11h33.17.549,WordPrimingExperiment,2024.1.5,None,2024-10-25 11h33.38.550700 +0530,
book,,,,0,5,5,0,,,,,10.199183499906212,,10.184436599956825,10.199183499906212,10.199183499906212,11.249569899984635,1.0222222222222221,1.0438326000003144,,,,,,,,,,,,,,,04,001,2024-10-25_11h33.17.549,WordPrimingExperiment,2024.1.5,None,2024-10-25 11h33.38.550700 +0530,
mouse,,,,0,6,6,8,,,,,11.263738899957389,,11.249783199978992,11.263738899957389,11.263738899957389,12.31554509990383,1.0222222222222221,1.045239400002174,,,,,,,,,,,,,,,04,001,2024-10-25_11h33.17.549,WordPrimingExperiment,2024.1.5,None,2024-10-25 11h33.38.550700 +0530,
chart,,,,0,7,7,6,,,,,12.330722899991088,,12.315802600001916,12.330722899991088,12.330722899991088,13.364477999974042,1.0222222222222221,1.0266183000057936,,,,,,,,,,,,,,,04,001,2024-10-25_11h33.17.549,WordPrimingExperiment,2024.1.5,None,2024-10-25 11h33.38.550700 +0530,
keys,,,,0,8,8,13,,,,,13.378926599980332,,13.364754699985497,13.378926599980332,13.378926599980332,14.313632599893026,1.0222222222222221,0.9278765000635758,,,,,,,,,,,,,,,04,001,2024-10-25_11h33.17.549,WordPrimingExperiment,2024.1.5,None,2024-10-25 11h33.38.550700 +0530,
marble,,,,0,9,9,3,,,,,14.327032999950461,,14.313973399926908,14.327032999950461,14.327032999950461,15.163127699983306,1.0222222222222221,0.8276138000655919,,,,,,,,,,,,,,,04,001,2024-10-25_11h33.17.549,WordPrimingExperiment,2024.1.5,None,2024-10-25 11h33.38.550700 +0530,
phone,,,,0,10,10,2,,,,,15.179476299905218,,15.163442399934866,15.179476299905218,15.179476299905218,15.978337799897417,1.0222222222222221,0.7922116999980062,,,,,,,,,,,,,,,04,001,2024-10-25_11h33.17.549,WordPrimingExperiment,2024.1.5,None,2024-10-25 11h33.38.550700 +0530,
cushion,,,,0,11,11,1,,,,,15.992569499998353,,15.978555299923755,15.992569499998353,15.992569499998353,16.777616099920124,1.0222222222222221,0.7783106000861153,,,,,,,,,,,,,,,04,001,2024-10-25_11h33.17.549,WordPrimingExperiment,2024.1.5,None,2024-10-25 11h33.38.550700 +0530,
T-shirt,,,,0,12,12,7,,,,,16.794652099953964,,16.777875699917786,16.794652099953964,16.794652099953964,17.59406669996679,1.0222222222222221,0.7926084999926388,,,,,,,,,,,,,,,04,001,2024-10-25_11h33.17.549,WordPrimingExperiment,2024.1.5,None,2024-10-25 11h33.38.550700 +0530,
case,,,,0,13,13,10,,,,,17.609819500008598,,17.594343699980527,17.609819500008598,17.609819500008598,18.459948499919847,1.0222222222222221,0.8437816000077873,,,,,,,,,,,,,,,04,001,2024-10-25_11h33.17.549,WordPrimingExperiment,2024.1.5,None,2024-10-25 11h33.38.550700 +0530,
poster,,,,0,14,14,14,,,,,18.475249699898995,,18.460229499964043,18.475249699898995,18.475249699898995,19.29248949990142,1.0222222222222221,0.8103899999987334,,,,,,,,,,,,,,,04,001,2024-10-25_11h33.17.549,WordPrimingExperiment,2024.1.5,None,2024-10-25 11h33.38.550700 +0530,
,bo_t_e,bottle,new,,,,,0,0,0,18,19.30861119995825,,,,,,,,19.29599369992502,19.30861119995825,19.30861119995825,19.30861119995825,0.006396000040695071,27.399857299984433,bottle,[-0.06851851851851852],[-0.29074074074074074],[1],[0],[0],[8.099987199995667],['text_3'],04,001,2024-10-25_11h33.17.549,WordPrimingExperiment,2024.1.5,None,2024-10-25 11h33.38.550700 +0530,
,p_li_e,police,old,,,,,0,1,1,7,27.414830999914557,,,,,,,,27.401130199898034,27.414830999914557,27.414830999914557,27.414830999914557,0.003316099988296628,32.04501329991035,Police,[-0.06851851851851852],[-0.3074074074074074],[1],[0],[0],[4.640095399925485],['text_3'],04,001,2024-10-25_11h33.17.549,WordPrimingExperiment,2024.1.5,None,2024-10-25 11h33.38.550700 +0530,
,l_pt_p,laptop,old,,,,,0,2,2,0,32.060612999950536,,,,,,,,32.04578109993599,32.060612999950536,32.060612999950536,32.060612999950536,0.002458799979649484,39.0382945999736,Laptop,[-0.02962962962962963],[-0.30925925925925923],[1],[0],[0],[6.9897530999733135],['text_3'],04,001,2024-10-25_11h33.17.549,WordPrimingExperiment,2024.1.5,None,2024-10-25 11h33.38.550700 +0530,
,p_s_ry,pastry,old,,,,,0,3,3,4,39.05420349992346,,,,,,,,39.03887369995937,39.05420349992346,39.05420349992346,39.05420349992346,0.0024210000410676003,43.617128799902275,Pastry,[-0.02962962962962963],[-0.30925925925925923],[1],[0],[0],[4.575441500055604],['text_3'],04,001,2024-10-25_11h33.17.549,WordPrimingExperiment,2024.1.5,None,2024-10-25 11h33.38.550700 +0530,
,_a_bl_,marble,old,,,,,0,4,4,11,43.63249259989243,,,,,,,,43.617708499892615,43.63249259989243,43.63249259989243,43.63249259989243,0.002462300006300211,48.51264969992917,Table,[-0.03333333333333333],[-0.30462962962962964],[1],[0],[0],[4.8919333999510854],['text_3'],04,001,2024-10-25_11h33.17.549,WordPrimingExperiment,2024.1.5,None,2024-10-25 11h33.38.550700 +0530,
,p_nc_l,pencil,new,,,,,0,5,5,16,48.528231799951755,,,,,,,,48.5132433999097,48.528231799951755,48.528231799951755,48.528231799951755,0.002307700109668076,55.69014859991148,Pencil,[-0.041666666666666664],[-0.3074074074074074],[1],[0],[0],[7.173879800015129],['text_3'],04,001,2024-10-25_11h33.17.549,WordPrimingExperiment,2024.1.5,None,2024-10-25 11h33.38.550700 +0530,
,_ha_t,chart,old,,,,,0,6,6,1,55.70531929994468,,,,,,,,55.69094679993577,55.70531929994468,55.70531929994468,55.70531929994468,0.0031183999963104725,59.286679299897514,Chart,[-0.041666666666666664],[-0.3074074074074074],[1],[0],[0],[3.5918233999982476],['text_3'],04,001,2024-10-25_11h33.17.549,WordPrimingExperiment,2024.1.5,None,2024-10-25 11h33.38.550700 +0530,
,k_y_,keys,old,,,,,0,7,7,8,59.30173169996124,,,,,,,,59.2873134999536,59.30173169996124,59.30173169996124,59.30173169996124,0.002348099951632321,62.35047449998092,Keys,[-0.041666666666666664],[-0.3074074074074074],[1],[0],[0],[3.0599951000185683],['text_3'],04,001,2024-10-25_11h33.17.549,WordPrimingExperiment,2024.1.5,None,2024-10-25 11h33.38.550700 +0530,
,c_m_ra,camera,new,,,,,0,8,8,19,62.366403299965896,,,,,,,,62.351301999995485,62.366403299965896,62.366403299965896,62.366403299965896,0.0034112000139430165,67.32915409991983,Camera,[0.024074074074074074],[-0.30648148148148147],[1],[0],[0],[4.973859900026582],['text_3'],04,001,2024-10-25_11h33.17.549,WordPrimingExperiment,2024.1.5,None,2024-10-25 11h33.38.550700 +0530,
,ta_l_,table,new,,,,,0,9,9,15,67.34442669991404,,,,,,,,67.3298511999892,67.34442669991404,67.34442669991404,67.34442669991404,0.002535999985411763,71.0253843999235,Table,[0.024074074074074074],[-0.30648148148148147],[1],[0],[0],[3.6924546000082046],['text_3'],04,001,2024-10-25_11h33.17.549,WordPrimingExperiment,2024.1.5,None,2024-10-25 11h33.38.550700 +0530,
,p_st_r,poster,old,,,,,0,10,10,9,71.0412582999561,,,,,,,,71.02596249990165,71.0412582999561,71.0412582999561,71.0412582999561,0.002297900035046041,74.97172729996964,Poster,[0.024074074074074074],[-0.30648148148148147],[1],[0],[0],[3.942797299940139],['text_3'],04,001,2024-10-25_11h33.17.549,WordPrimingExperiment,2024.1.5,None,2024-10-25 11h33.38.550700 +0530,
,v_s_,vase,new,,,,,0,11,11,17,74.98729439999443,,,,,,,,74.97273299994413,74.98729439999443,74.98729439999443,74.98729439999443,0.0042215000139549375,79.11773820000235,Vase,[0.03888888888888889],[-0.30277777777777776],[1],[0],[0],[4.140383000019938],['text_3'],04,001,2024-10-25_11h33.17.549,WordPrimingExperiment,2024.1.5,None,2024-10-25 11h33.38.550700 +0530,
,_ho_e,phone,old,,,,,0,12,12,12,79.13326989999041,,,,,,,,79.11831829999574,79.13326989999041,79.13326989999041,79.13326989999041,0.0024278999771922827,82.81392280000728,Shoe,[0.013888888888888888],[-0.30277777777777776],[1],[0],[0],[3.692702899919823],['text_3'],04,001,2024-10-25_11h33.17.549,WordPrimingExperiment,2024.1.5,None,2024-10-25 11h33.38.550700 +0530,
,_r_is_,cruise,old,,,,,0,13,13,6,82.82955049991142,,,,,,,,82.81443869997747,82.82955049991142,82.82955049991142,82.82955049991142,0.002787300036288798,86.6779423999833,Cruise,[0.013888888888888888],[-0.30277777777777776],[1],[0],[0],[3.859991000033915],['text_3'],04,001,2024-10-25_11h33.17.549,WordPrimingExperiment,2024.1.5,None,2024-10-25 11h33.38.550700 +0530,
,_o_rd,board,old,,,,,0,14,14,10,86.69252849998884,,,,,,,,86.67876659997273,86.69252849998884,86.69252849998884,86.69252849998884,0.0032788000535219908,90.90709639992565,Board,[0.04537037037037037],[-0.30833333333333335],[1],[0],[0],[4.224510499974713],['text_3'],04,001,2024-10-25_11h33.17.549,WordPrimingExperiment,2024.1.5,None,2024-10-25 11h33.38.550700 +0530,
,c_s_,case,old,,,,,0,15,15,5,90.92251770000439,,,,,,,,90.90766249992885,90.92251770000439,90.92251770000439,90.92251770000439,0.0023441000375896692,93.53831319999881,Case,[0.04537037037037037],[-0.30833333333333335],[1],[0],[0],[2.6274717999622226],['text_3'],04,001,2024-10-25_11h33.17.549,WordPrimingExperiment,2024.1.5,None,2024-10-25 11h33.38.550700 +0530,
,c_s_io_,cushion,old,,,,,0,16,16,14,93.55372510000598,,,,,,,,93.53911169990897,93.55372510000598,93.55372510000598,93.55372510000598,0.003727799979969859,97.60080949997064,Cushion,[0.04537037037037037],[-0.30833333333333335],[1],[0],[0],[4.057160699972883],['text_3'],04,001,2024-10-25_11h33.17.549,WordPrimingExperiment,2024.1.5,None,2024-10-25 11h33.38.550700 +0530,
,T_hi_t,tshirt,old,,,,,0,17,17,2,97.6161359999096,,,,,,,,97.6015580999665,97.6161359999096,97.6161359999096,97.6161359999096,0.003137399908155203,102.12985709996428,Tshirt,[0.028703703703703703],[-0.30462962962962964],[1],[0],[0],[4.524499199935235],['text_3'],04,001,2024-10-25_11h33.17.549,WordPrimingExperiment,2024.1.5,None,2024-10-25 11h33.38.550700 +0530,
,_ou_se,mouse,old,,,,,0,18,18,3,102.14553039998282,,,,,,,,102.1304595998954,102.14553039998282,102.14553039998282,102.14553039998282,0.0023602000437676907,105.1272301999852,Mouse,[0.028703703703703703],[-0.30462962962962964],[1],[0],[0],[2.993672600015998],['text_3'],04,001,2024-10-25_11h33.17.549,WordPrimingExperiment,2024.1.5,None,2024-10-25 11h33.38.550700 +0530,
,_oo_,book,old,,,,,0,19,19,13,105.14216779998969,,,,,,,,105.12810039997566,105.14216779998969,105.14216779998969,105.14216779998969,0.0029741000616922975,114.06944689992815,Book,[-0.020370370370370372],[-0.30462962962962964],[1],[0],[0],[8.937518400023691],['text_3'],04,001,2024-10-25_11h33.17.549,WordPrimingExperiment,2024.1.5,None,2024-10-25 11h33.38.550700 +0530,
