neg_words,math,trials.thisRepN,trials.thisTrialN,trials.thisN,trials.thisIndex,trials_2.thisRepN,trials_2.thisTrialN,trials_2.thisN,trials_2.thisIndex,trials_3.thisRepN,trials_3.thisTrialN,trials_3.thisN,trials_3.thisIndex,trials_4.thisRepN,trials_4.thisTrialN,trials_4.thisN,trials_4.thisIndex,thisRow.t,notes,Intro.started,Introduction.started,key_resp.started,Intro.stopped,key_resp.keys,key_resp.rt,key_resp.duration,Words.started,key_resp_2.started,text.started,Words.stopped,key_resp_2.keys,key_resp_2.rt,key_resp_2.duration,text.stopped,DisTask.started,task.started,textbox.started,InstText.started,mouse.started,DisTask.stopped,textbox.text,mouse.x,mouse.y,mouse.leftButton,mouse.midButton,mouse.rightButton,mouse.time,mouse.clicked_name,Recall.started,RecallTask.started,key_resp_3.started,Recall.stopped,key_resp_3.keys,key_resp_3.rt,key_resp_3.duration,Testing.started,TestAns.started,Instr.started,mouse_2.started,Testing.stopped,TestAns.text,mouse_2.x,mouse_2.y,mouse_2.leftButton,mouse_2.midButton,mouse_2.rightButton,mouse_2.time,mouse_2.clicked_name,participant,session,date,expName,psychopyVersion,frameRate,expStart,
,,0,0,0,0,,,,,,,,,,,,,0.00622300012037158,,0.0029210997745394707,0.00622300012037158,1.004852999933064,5.621720700059086,space,4.591277599800378,None,,,,,,,,,,,,,,,,,,,,,,,,,,,,,,,,,,,,,,,,,,,01,001,2024-11-29_22h36.17.525,EmotionalValenceMemoryRecall,2024.1.5,None,2024-11-29 22h36.32.474256 +0530,
loser,,,,,,0,0,0,5,,,,,,,,,5.66354600014165,,,,,,,,,5.640889000147581,5.66354600014165,7.132549799978733,8.566688899882138,right,2.8872571997344494,None,,,,,,,,,,,,,,,,,,,,,,,,,,,,,,,,,,,,01,001,2024-11-29_22h36.17.525,EmotionalValenceMemoryRecall,2024.1.5,None,2024-11-29 22h36.32.474256 +0530,
thief,,,,,,0,1,1,19,,,,,,,,,8.580796199850738,,,,,,,,,8.567983299959451,8.580796199850738,10.079890199936926,11.18057719990611,left,2.592709899879992,None,,,,,,,,,,,,,,,,,,,,,,,,,,,,,,,,,,,,01,001,2024-11-29_22h36.17.525,EmotionalValenceMemoryRecall,2024.1.5,None,2024-11-29 22h36.32.474256 +0530,
angry,,,,,,0,2,2,10,,,,,,,,,11.195611100178212,,,,,,,,,11.181845699902624,11.195611100178212,12.694356199819595,13.61372260004282,right,2.409947999753058,None,,,,,,,,,,,,,,,,,,,,,,,,,,,,,,,,,,,,01,001,2024-11-29_22h36.17.525,EmotionalValenceMemoryRecall,2024.1.5,None,2024-11-29 22h36.32.474256 +0530,
poison,,,,,,0,3,3,22,,,,,,,,,13.628285199869424,,,,,,,,,13.614538100082427,13.628285199869424,15.125164399854839,16.259122000075877,right,2.619175000116229,None,,,,,,,,,,,,,,,,,,,,,,,,,,,,,,,,,,,,01,001,2024-11-29_22h36.17.525,EmotionalValenceMemoryRecall,2024.1.5,None,2024-11-29 22h36.32.474256 +0530,
demon,,,,,,0,4,4,20,,,,,,,,,16.273714799899608,,,,,,,,,16.260063500143588,16.273714799899608,17.772395399864763,20.871713100001216,right,4.58304370008409,None,20.78666270012036,,,,,,,,,,,,,,,,,,,,,,,,,,,,,,,,,,,01,001,2024-11-29_22h36.17.525,EmotionalValenceMemoryRecall,2024.1.5,None,2024-11-29 22h36.32.474256 +0530,
insult,,,,,,0,5,5,18,,,,,,,,,20.88653719983995,,,,,,,,,20.8726333999075,20.88653719983995,22.385156999807805,23.153102799784392,right,2.2496894001960754,None,,,,,,,,,,,,,,,,,,,,,,,,,,,,,,,,,,,,01,001,2024-11-29_22h36.17.525,EmotionalValenceMemoryRecall,2024.1.5,None,2024-11-29 22h36.32.474256 +0530,
toxic,,,,,,0,6,6,13,,,,,,,,,23.168927600141615,,,,,,,,,23.15392779977992,23.168927600141615,24.666338299866766,26.517266899812967,right,3.3310989998281,None,,,,,,,,,,,,,,,,,,,,,,,,,,,,,,,,,,,,01,001,2024-11-29_22h36.17.525,EmotionalValenceMemoryRecall,2024.1.5,None,2024-11-29 22h36.32.474256 +0530,
fear,,,,,,0,7,7,16,,,,,,,,,26.53131109988317,,,,,,,,,26.518101599998772,26.53131109988317,28.0301904999651,28.963861499913037,right,2.4305749000050128,None,,,,,,,,,,,,,,,,,,,,,,,,,,,,,,,,,,,,01,001,2024-11-29_22h36.17.525,EmotionalValenceMemoryRecall,2024.1.5,None,2024-11-29 22h36.32.474256 +0530,
burial,,,,,,0,8,8,23,,,,,,,,,28.97883650008589,,,,,,,,,28.964373900089413,28.97883650008589,30.477600499987602,32.561186499893665,right,3.568312699906528,None,,,,,,,,,,,,,,,,,,,,,,,,,,,,,,,,,,,,01,001,2024-11-29_22h36.17.525,EmotionalValenceMemoryRecall,2024.1.5,None,2024-11-29 22h36.32.474256 +0530,
alone,,,,,,0,9,9,6,,,,,,,,,32.5757078002207,,,,,,,,,32.56201400002465,32.5757078002207,34.07407640013844,35.67451329994947,right,3.0877187000587583,None,,,,,,,,,,,,,,,,,,,,,,,,,,,,,,,,,,,,01,001,2024-11-29_22h36.17.525,EmotionalValenceMemoryRecall,2024.1.5,None,2024-11-29 22h36.32.474256 +0530,
knife,,,,,,0,10,10,2,,,,,,,,,35.6892957999371,,,,,,,,,35.67533850017935,35.6892957999371,37.187562299892306,38.23919150000438,left,2.534904200118035,None,,,,,,,,,,,,,,,,,,,,,,,,,,,,,,,,,,,,01,001,2024-11-29_22h36.17.525,EmotionalValenceMemoryRecall,2024.1.5,None,2024-11-29 22h36.32.474256 +0530,
grief,,,,,,0,11,11,21,,,,,,,,,38.25372759997845,,,,,,,,,38.23997819982469,38.25372759997845,39.7522146999836,40.62075790017843,right,2.357436599675566,None,,,,,,,,,,,,,,,,,,,,,,,,,,,,,,,,,,,,01,001,2024-11-29_22h36.17.525,EmotionalValenceMemoryRecall,2024.1.5,None,2024-11-29 22h36.32.474256 +0530,
crisis,,,,,,0,12,12,3,,,,,,,,,40.63470119982958,,,,,,,,,40.622172500006855,40.63470119982958,42.133337299805135,43.334333799779415,right,2.6940498002804816,None,,,,,,,,,,,,,,,,,,,,,,,,,,,,,,,,,,,,01,001,2024-11-29_22h36.17.525,EmotionalValenceMemoryRecall,2024.1.5,None,2024-11-29 22h36.32.474256 +0530,
betray,,,,,,0,13,13,14,,,,,,,,,43.348486999981105,,,,,,,,,43.33522849995643,43.348486999981105,44.84738950012252,46.09830700000748,right,2.7379662999883294,None,,,,,,,,,,,,,,,,,,,,,,,,,,,,,,,,,,,,01,001,2024-11-29_22h36.17.525,EmotionalValenceMemoryRecall,2024.1.5,None,2024-11-29 22h36.32.474256 +0530,
rape,,,,,,0,14,14,15,,,,,,,,,46.11312420014292,,,,,,,,,46.09912580018863,46.11312420014292,47.611686599906534,48.27968510007486,right,2.1518192002549767,None,,,,,,,,,,,,,,,,,,,,,,,,,,,,,,,,,,,,01,001,2024-11-29_22h36.17.525,EmotionalValenceMemoryRecall,2024.1.5,None,2024-11-29 22h36.32.474256 +0530,
lost,,,,,,0,15,15,4,,,,,,,,,48.29381689988077,,,,,,,,,48.28064850019291,48.29381689988077,49.792494600173086,51.02620430011302,right,2.7195988004095852,None,,,,,,,,,,,,,,,,,,,,,,,,,,,,,,,,,,,,01,001,2024-11-29_22h36.17.525,EmotionalValenceMemoryRecall,2024.1.5,None,2024-11-29 22h36.32.474256 +0530,
debt,,,,,,0,16,16,24,,,,,,,,,51.041201000101864,,,,,,,,,51.02683900017291,51.041201000101864,52.5403014998883,53.59100090013817,left,2.54127879999578,None,,,,,,,,,,,,,,,,,,,,,,,,,,,,,,,,,,,,01,001,2024-11-29_22h36.17.525,EmotionalValenceMemoryRecall,2024.1.5,None,2024-11-29 22h36.32.474256 +0530,
crime,,,,,,0,17,17,11,,,,,,,,,53.60588110005483,,,,,,,,,53.59203859977424,53.60588110005483,55.10461140004918,55.9421421000734,right,2.3331428999081254,None,,,,,,,,,,,,,,,,,,,,,,,,,,,,,,,,,,,,01,001,2024-11-29_22h36.17.525,EmotionalValenceMemoryRecall,2024.1.5,None,2024-11-29 22h36.32.474256 +0530,
corpse,,,,,,0,18,18,17,,,,,,,,,55.95392660005018,,,,,,,,,55.94339899998158,55.95392660005018,57.45256739994511,60.18601180007681,left,4.229444900061935,None,,,,,,,,,,,,,,,,,,,,,,,,,,,,,,,,,,,,01,001,2024-11-29_22h36.17.525,EmotionalValenceMemoryRecall,2024.1.5,None,2024-11-29 22h36.32.474256 +0530,
lie,,,,,,0,19,19,7,,,,,,,,,60.199744699988514,,,,,,,,,60.18683819985017,60.199744699988514,61.698464300017804,62.43291069986299,right,2.22498539974913,None,,,,,,,,,,,,,,,,,,,,,,,,,,,,,,,,,,,,01,001,2024-11-29_22h36.17.525,EmotionalValenceMemoryRecall,2024.1.5,None,2024-11-29 22h36.32.474256 +0530,
rage,,,,,,0,20,20,9,,,,,,,,,62.447816600091755,,,,,,,,,62.43380009988323,62.447816600091755,63.945956599898636,65.12867650017142,right,2.6641285996884108,None,,,,,,,,,,,,,,,,,,,,,,,,,,,,,,,,,,,,01,001,2024-11-29_22h36.17.525,EmotionalValenceMemoryRecall,2024.1.5,None,2024-11-29 22h36.32.474256 +0530,
ugly,,,,,,0,21,21,0,,,,,,,,,65.14463829994202,,,,,,,,,65.12911849981174,65.14463829994202,66.64367329981178,67.31054840004072,right,2.153857000172138,None,,,,,,,,,,,,,,,,,,,,,,,,,,,,,,,,,,,,01,001,2024-11-29_22h36.17.525,EmotionalValenceMemoryRecall,2024.1.5,None,2024-11-29 22h36.32.474256 +0530,
rotten,,,,,,0,22,22,8,,,,,,,,,67.32582340016961,,,,,,,,,67.31090879999101,67.32582340016961,68.82471589976922,71.19191539986059,right,3.8525733002461493,None,,,,,,,,,,,,,,,,,,,,,,,,,,,,,,,,,,,,01,001,2024-11-29_22h36.17.525,EmotionalValenceMemoryRecall,2024.1.5,None,2024-11-29 22h36.32.474256 +0530,
vomit,,,,,,0,23,23,12,,,,,,,,,71.20614159991965,,,,,,,,,71.19280610000715,71.20614159991965,72.70496180001646,75.51904270006344,left,4.300908399745822,None,,,,,,,,,,,,,,,,,,,,,,,,,,,,,,,,,,,,01,001,2024-11-29_22h36.17.525,EmotionalValenceMemoryRecall,2024.1.5,None,2024-11-29 22h36.32.474256 +0530,
evil,,,,,,0,24,24,1,,,,,,,,,75.53497519996017,,,,,,,,,75.51951789995655,75.53497519996017,77.0341304000467,79.83361050020903,right,4.28327009966597,None,,,,,,,,,,,,,,,,,,,,,,,,,,,,,,,,,,,,01,001,2024-11-29_22h36.17.525,EmotionalValenceMemoryRecall,2024.1.5,None,2024-11-29 22h36.32.474256 +0530,
,25 + 28 =,,,,,,,,,0,0,0,5,,,,,79.87917040009052,,,,,,,,,,,,,,,,,79.84345889976248,79.87917040009052,79.87917040009052,79.87917040009052,0.026256899815052748,85.56480829976499,53,[-0.05092592592592592],[-0.32037037037037036],[1],[0],[0],[5.703071500174701],['InstText'],,,,,,,,,,,,,,,,,,,,,01,001,2024-11-29_22h36.17.525,EmotionalValenceMemoryRecall,2024.1.5,None,2024-11-29 22h36.32.474256 +0530,
,23 - 29 =,,,,,,,,,0,1,1,7,,,,,85.59575269976631,,,,,,,,,,,,,,,,,85.56743580009788,85.59575269976631,85.59575269976631,85.59575269976631,0.011445700190961361,90.60676069976762,-6,[-0.040740740740740744],[-0.30648148148148147],[1],[0],[0],[5.027027999982238],['InstText'],,,,,,,,,,,,,,,,,,,,,01,001,2024-11-29_22h36.17.525,EmotionalValenceMemoryRecall,2024.1.5,None,2024-11-29 22h36.32.474256 +0530,
,84 + 35 =,,,,,,,,,0,2,2,13,,,,,90.63355250004679,,,,,,,,,,,,,,,,,90.60803910018876,90.63355250004679,90.63355250004679,90.63355250004679,0.009483099915087223,93.71956689981744,119,[-0.040740740740740744],[-0.30648148148148147],[1],[0],[0],[3.1014539999887347],['InstText'],,,,,,,,,,,,,,,,,,,,,01,001,2024-11-29_22h36.17.525,EmotionalValenceMemoryRecall,2024.1.5,None,2024-11-29 22h36.32.474256 +0530,
,40 - 44 =,,,,,,,,,0,3,3,11,,,,,93.74303760007024,,,,,,,,,,,,,,,,,93.72072139987722,93.74303760007024,93.74303760007024,93.74303760007024,0.008084400091320276,96.33439490012825,-4,[-0.040740740740740744],[-0.30648148148148147],[1],[0],[0],[2.6047568996436894],['InstText'],,,,,,,,,,,,,,,,,,,,,01,001,2024-11-29_22h36.17.525,EmotionalValenceMemoryRecall,2024.1.5,None,2024-11-29 22h36.32.474256 +0530,
,10 + 15 =,,,,,,,,,0,4,4,0,,,,,96.35950950020924,,,,,,,,,,,,,,,,,96.33569649979472,96.35950950020924,96.35950950020924,96.35950950020924,0.008100300095975399,97.99950850009918,25,[-0.040740740740740744],[-0.30648148148148147],[1],[0],[0],[1.654774900060147],['InstText'],,,,,,,,,,,,,,,,,,,,,01,001,2024-11-29_22h36.17.525,EmotionalValenceMemoryRecall,2024.1.5,None,2024-11-29 22h36.32.474256 +0530,
,17 + 14 =,,,,,,,,,0,5,5,3,,,,,98.02923819981515,,,,,,,,,,,,,,,,,98.00085779977962,98.02923819981515,98.02923819981515,98.02923819981515,0.011603400111198425,101.7463210998103,31,[-0.040740740740740744],[-0.30648148148148147],[1],[0],[0],[3.732804900035262],['InstText'],,,,,,,,,,,,,,,,,,,,,01,001,2024-11-29_22h36.17.525,EmotionalValenceMemoryRecall,2024.1.5,None,2024-11-29 22h36.32.474256 +0530,
,47 + 50 =,,,,,,,,,0,6,6,14,,,,,101.77343090018257,,,,,,,,,,,,,,,,,101.74765540007502,101.77343090018257,101.77343090018257,101.77343090018257,0.00943360012024641,105.69293549982831,97,[-0.040740740740740744],[-0.30648148148148147],[1],[0],[0],[3.934817200060934],['InstText'],,,,,,,,,,,,,,,,,,,,,01,001,2024-11-29_22h36.17.525,EmotionalValenceMemoryRecall,2024.1.5,None,2024-11-29 22h36.32.474256 +0530,
,32 - 45 =,,,,,,,,,0,7,7,6,,,,,105.71723189996555,,,,,,,,,,,,,,,,,105.69419169984758,105.71723189996555,105.71723189996555,105.71723189996555,0.0060176001861691475,110.10491049988195,-13,[-0.040740740740740744],[-0.30648148148148147],[1],[0],[0],[4.403775300364941],['InstText'],,,,,,,,,,,,,,,,,,,,,01,001,2024-11-29_22h36.17.525,EmotionalValenceMemoryRecall,2024.1.5,None,2024-11-29 22h36.32.474256 +0530,
,32 - 21 =,,,,,,,,,0,8,8,4,,,,,110.12996419984847,,,,,,,,,,,,,,,,,110.10666760010645,110.12996419984847,110.12996419984847,110.12996419984847,0.006387999746948481,115.650030199904,11,[-0.040740740740740744],[-0.30648148148148147],[1],[0],[0],[5.5362218003720045],['InstText'],,,,,,,,,,,,,,,,,,,,,01,001,2024-11-29_22h36.17.525,EmotionalValenceMemoryRecall,2024.1.5,None,2024-11-29 22h36.32.474256 +0530,
,29 + 10 =,,,,,,,,,0,9,9,8,,,,,115.67599180014804,,,,,,,,,,,,,,,,,115.65145239979029,115.67599180014804,115.67599180014804,115.67599180014804,0.006718500051647425,117.26458740001544,39,[-0.040740740740740744],[-0.30648148148148147],[1],[0],[0],[1.605848299805075],['InstText'],,,,,,,,,,,,,,,,,,,,,01,001,2024-11-29_22h36.17.525,EmotionalValenceMemoryRecall,2024.1.5,None,2024-11-29 22h36.32.474256 +0530,
,69 - 12 =,,,,,,,,,0,10,10,1,,,,,117.29525960003957,,,,,,,,,,,,,,,,,117.26581870019436,117.29525960003957,117.29525960003957,117.29525960003957,0.013929500244557858,120.87834220007062,57,[-0.040740740740740744],[-0.30648148148148147],[1],[0],[0],[3.597621699795127],['InstText'],,,,,,,,,,,,,,,,,,,,,01,001,2024-11-29_22h36.17.525,EmotionalValenceMemoryRecall,2024.1.5,None,2024-11-29 22h36.32.474256 +0530,
,28 + 31 =,,,,,,,,,0,11,11,10,,,,,120.90460930019617,,,,,,,,,,,,,,,,,120.87957660015672,120.90460930019617,120.90460930019617,120.90460930019617,0.008496299851685762,123.22675549983978,59,[-0.040740740740740744],[-0.30648148148148147],[1],[0],[0],[2.337696900125593],['InstText'],,,,,,,,,,,,,,,,,,,,,01,001,2024-11-29_22h36.17.525,EmotionalValenceMemoryRecall,2024.1.5,None,2024-11-29 22h36.32.474256 +0530,
,41 + 23 =,,,,,,,,,0,12,12,9,,,,,123.25194020010531,,,,,,,,,,,,,,,,,123.22823949996382,123.25194020010531,123.25194020010531,123.25194020010531,0.006761099677532911,125.52389540011063,64,[-0.040740740740740744],[-0.30648148148148147],[1],[0],[0],[2.2880478999577463],['InstText'],,,,,,,,,,,,,,,,,,,,,01,001,2024-11-29_22h36.17.525,EmotionalValenceMemoryRecall,2024.1.5,None,2024-11-29 22h36.32.474256 +0530,
,16 + 12 =,,,,,,,,,0,13,13,12,,,,,125.5464161997661,,,,,,,,,,,,,,,,,125.52520240005106,125.5464161997661,125.5464161997661,125.5464161997661,0.005981199909001589,128.0720680002123,28,[-0.040740740740740744],[-0.30648148148148147],[1],[0],[0],[2.540044100023806],['InstText'],,,,,,,,,,,,,,,,,,,,,01,001,2024-11-29_22h36.17.525,EmotionalValenceMemoryRecall,2024.1.5,None,2024-11-29 22h36.32.474256 +0530,
,44 - 5 =,,,,,,,,,0,14,14,2,,,,,128.09535099985078,,,,,,,,,,,,,,,,,128.07338210009038,128.09535099985078,128.09535099985078,128.09535099985078,0.006113899871706963,131.0846763001755,393,[-0.040740740740740744],[-0.30648148148148147],[1],[0],[0],[3.004710499662906],['InstText'],,,,,,,,,,,,,,,,,,,,,01,001,2024-11-29_22h36.17.525,EmotionalValenceMemoryRecall,2024.1.5,None,2024-11-29 22h36.32.474256 +0530,
,,,,,,,,,,,,,,,,,,,,,,,,,,,,,,,,,,,,,,,,,,,,,,,,,131.08530610008165,131.10006529977545,131.10006529977545,143.45777580002323,space,12.347177300136536,None,,,,,,,,,,,,,,01,001,2024-11-29_22h36.17.525,EmotionalValenceMemoryRecall,2024.1.5,None,2024-11-29 22h36.32.474256 +0530,
,,,,,,,,,,,,,,0,0,0,0,143.47646930022165,,,,,,,,,,,,,,,,,,,,,,,,,,,,,,,,,,,,,,143.4594835001044,143.47646930022165,143.47646930022165,0.0026712999679148197,150.56690440000966, fear,"[0.001851851851851852, 0.013888888888888888]","[-0.005555555555555556, -0.31851851851851853]","[1, 1]","[0, 0]","[0, 0]","[5.64044150011614, 7.105440600309521]",['Instr'],01,001,2024-11-29_22h36.17.525,EmotionalValenceMemoryRecall,2024.1.5,None,2024-11-29 22h36.32.474256 +0530,
,,,,,,,,,,,,,,1,0,1,0,150.58853519987315,,,,,,,,,,,,,,,,,,,,,,,,,,,,,,,,,,,,,,150.57010880019516,150.58853519987315,150.58853519987315,0.0015100003220140934,154.06437540007755,anger,[0.013888888888888888],[-0.31851851851851853],[1],[0],[0],[3.491988899651915],['Instr'],01,001,2024-11-29_22h36.17.525,EmotionalValenceMemoryRecall,2024.1.5,None,2024-11-29 22h36.32.474256 +0530,
,,,,,,,,,,,,,,2,0,2,0,154.0822592000477,,,,,,,,,,,,,,,,,,,,,,,,,,,,,,,,,,,,,,154.0663784001954,154.0822592000477,154.0822592000477,0.001421700231730938,156.5771893998608,lost,[0.013888888888888888],[-0.31851851851851853],[1],[0],[0],[2.5091564999893308],['Instr'],01,001,2024-11-29_22h36.17.525,EmotionalValenceMemoryRecall,2024.1.5,None,2024-11-29 22h36.32.474256 +0530,
,,,,,,,,,,,,,,3,0,3,0,156.59259459981695,,,,,,,,,,,,,,,,,,,,,,,,,,,,,,,,,,,,,,156.57795190019533,156.59259459981695,156.59259459981695,0.0006014998070895672,159.1919100000523,crime,[0.013888888888888888],[-0.31851851851851853],[1],[0],[0],[2.612864499911666],['Instr'],01,001,2024-11-29_22h36.17.525,EmotionalValenceMemoryRecall,2024.1.5,None,2024-11-29 22h36.32.474256 +0530,
,,,,,,,,,,,,,,4,0,4,0,159.20682220021263,,,,,,,,,,,,,,,,,,,,,,,,,,,,,,,,,,,,,,159.19378239987418,159.20682220021263,159.20682220021263,0.0012802002020180225,161.72749469988048,rape,[0.013888888888888888],[-0.31851851851851853],[1],[0],[0],[2.5316775999963284],['Instr'],01,001,2024-11-29_22h36.17.525,EmotionalValenceMemoryRecall,2024.1.5,None,2024-11-29 22h36.32.474256 +0530,
,,,,,,,,,,,,,,5,0,5,0,161.74454359989613,,,,,,,,,,,,,,,,,,,,,,,,,,,,,,,,,,,,,,161.72946709999815,161.74454359989613,161.74454359989613,0.0014090999029576778,163.9715518001467,lie,[0.013888888888888888],[-0.31851851851851853],[1],[0],[0],[2.2400954999029636],['Instr'],01,001,2024-11-29_22h36.17.525,EmotionalValenceMemoryRecall,2024.1.5,None,2024-11-29 22h36.32.474256 +0530,
,,,,,,,,,,,,,,6,0,6,0,163.98918539984152,,,,,,,,,,,,,,,,,,,,,,,,,,,,,,,,,,,,,,163.97374599985778,163.98918539984152,163.98918539984152,0.0016375002451241016,167.25221499986947,toxic,[0.013888888888888888],[-0.31851851851851853],[1],[0],[0],[3.2761417999863625],['Instr'],01,001,2024-11-29_22h36.17.525,EmotionalValenceMemoryRecall,2024.1.5,None,2024-11-29 22h36.32.474256 +0530,
,,,,,,,,,,,,,,7,0,7,0,167.27119969995692,,,,,,,,,,,,,,,,,,,,,,,,,,,,,,,,,,,,,,167.25451359990984,167.27119969995692,167.27119969995692,0.0014171996153891087,171.06504279980436,corpse,[0.013888888888888888],[-0.31851851851851853],[1],[0],[0],[3.808263400103897],['Instr'],01,001,2024-11-29_22h36.17.525,EmotionalValenceMemoryRecall,2024.1.5,None,2024-11-29 22h36.32.474256 +0530,
,,,,,,,,,,,,,,8,0,8,0,171.0825514998287,,,,,,,,,,,,,,,,,,,,,,,,,,,,,,,,,,,,,,171.0671828999184,171.0825514998287,171.0825514998287,0.0014907000586390495,174.86303739994764,toxic,[0.013888888888888888],[-0.31851851851851853],[1],[0],[0],[3.793640200048685],['Instr'],01,001,2024-11-29_22h36.17.525,EmotionalValenceMemoryRecall,2024.1.5,None,2024-11-29 22h36.32.474256 +0530,
,,,,,,,,,,,,,,9,0,9,0,174.88194599980488,,,,,,,,,,,,,,,,,,,,,,,,,,,,,,,,,,,,,,174.86501540010795,174.88194599980488,174.88194599980488,0.00150969997048378,178.67505399975926,insult,[0.013888888888888888],[-0.31851851851851853],[1],[0],[0],[3.8077227999456227],['Instr'],01,001,2024-11-29_22h36.17.525,EmotionalValenceMemoryRecall,2024.1.5,None,2024-11-29 22h36.32.474256 +0530,
,,,,,,,,,,,,,,10,0,10,0,178.69214909989387,,,,,,,,,,,,,,,,,,,,,,,,,,,,,,,,,,,,,,178.67753619980067,178.69214909989387,178.69214909989387,0.001561800017952919,181.571912500076,crime,[0.013888888888888888],[-0.31851851851851853],[1],[0],[0],[2.892075300216675],['Instr'],01,001,2024-11-29_22h36.17.525,EmotionalValenceMemoryRecall,2024.1.5,None,2024-11-29 22h36.32.474256 +0530,
,,,,,,,,,,,,,,11,0,11,0,181.5898322002031,,,,,,,,,,,,,,,,,,,,,,,,,,,,,,,,,,,,,,181.57424979982898,181.5898322002031,181.5898322002031,0.0016614003106951714,184.11912690009922,demon,[0.013888888888888888],[-0.31851851851851853],[1],[0],[0],[2.542654300108552],['Instr'],01,001,2024-11-29_22h36.17.525,EmotionalValenceMemoryRecall,2024.1.5,None,2024-11-29 22h36.32.474256 +0530,
,,,,,,,,,,,,,,12,0,12,0,184.1361905997619,,,,,,,,,,,,,,,,,,,,,,,,,,,,,,,,,,,,,,184.12107799993828,184.1361905997619,184.1361905997619,0.0014098999090492725,186.68228900013492,debt,[0.013888888888888888],[-0.31851851851851853],[1],[0],[0],[2.5596064999699593],['Instr'],01,001,2024-11-29_22h36.17.525,EmotionalValenceMemoryRecall,2024.1.5,None,2024-11-29 22h36.32.474256 +0530,
,,,,,,,,,,,,,,13,0,13,0,186.6980380997993,,,,,,,,,,,,,,,,,,,,,,,,,,,,,,,,,,,,,,186.6829920001328,186.6980380997993,186.6980380997993,0.0005196998827159405,189.2002348001115,thief,[0.013888888888888888],[-0.31851851851851853],[1],[0],[0],[2.5158182000741363],['Instr'],01,001,2024-11-29_22h36.17.525,EmotionalValenceMemoryRecall,2024.1.5,None,2024-11-29 22h36.32.474256 +0530,
,,,,,,,,,,,,,,14,0,14,0,189.2207643999718,,,,,,,,,,,,,,,,,,,,,,,,,,,,,,,,,,,,,,189.20380750019103,189.2207643999718,189.2207643999718,0.0021867998875677586,192.22915610019118,loser,[0.013888888888888888],[-0.31851851851851853],[1],[0],[0],[3.0224599996581674],['Instr'],01,001,2024-11-29_22h36.17.525,EmotionalValenceMemoryRecall,2024.1.5,None,2024-11-29 22h36.32.474256 +0530,
,,,,,,,,,,,,,,15,0,15,0,192.24647640017793,,,,,,,,,,,,,,,,,,,,,,,,,,,,,,,,,,,,,,192.23114140005782,192.24647640017793,192.24647640017793,0.0014140000566840172,198.755832800176,rage,[0.013888888888888888],[-0.31851851851851853],[1],[0],[0],[6.522524499800056],['Instr'],01,001,2024-11-29_22h36.17.525,EmotionalValenceMemoryRecall,2024.1.5,None,2024-11-29 22h36.32.474256 +0530,
,,,,,,,,,,,,,,16,0,16,0,198.77196099981666,,,,,,,,,,,,,,,,,,,,,,,,,,,,,,,,,,,,,,198.75784760015085,198.77196099981666,198.77196099981666,0.0014781998470425606,208.76101800007746,,[],[],[],[],[],[],[],01,001,2024-11-29_22h36.17.525,EmotionalValenceMemoryRecall,2024.1.5,None,2024-11-29 22h36.32.474256 +0530,
,,,,,,,,,,,,,,17,0,17,0,208.77749719982967,,,,,,,,,,,,,,,,,,,,,,,,,,,,,,,,,,,,,,208.76284480001777,208.77749719982967,208.77749719982967,0.006440799683332443,218.7684692000039,,[],[],[],[],[],[],[],01,001,2024-11-29_22h36.17.525,EmotionalValenceMemoryRecall,2024.1.5,None,2024-11-29 22h36.32.474256 +0530,
,,,,,,,,,,,,,,18,0,18,0,218.78688299981877,,,,,,,,,,,,,,,,,,,,,,,,,,,,,,,,,,,,,,218.77047009998932,218.78688299981877,218.78688299981877,0.01411739969626069,228.75927100004628,,[],[],[],[],[],[],[],01,001,2024-11-29_22h36.17.525,EmotionalValenceMemoryRecall,2024.1.5,None,2024-11-29 22h36.32.474256 +0530,
,,,,,,,,,,,,,,19,0,19,0,228.77551459986717,,,,,,,,,,,,,,,,,,,,,,,,,,,,,,,,,,,,,,228.7613387000747,228.77551459986717,228.77551459986717,0.0049565997906029224,231.20887729991227,evil,[0.013888888888888888],[-0.31851851851851853],[1],[0],[0],[2.4454113002866507],['Instr'],01,001,2024-11-29_22h36.17.525,EmotionalValenceMemoryRecall,2024.1.5,None,2024-11-29 22h36.32.474256 +0530,
,,,,,,,,,,,,,,20,0,20,0,231.22618620004505,,,,,,,,,,,,,,,,,,,,,,,,,,,,,,,,,,,,,,231.21078719990328,231.22618620004505,231.22618620004505,0.0013983002863824368,241.21433970006183,,[],[],[],[],[],[],[],01,001,2024-11-29_22h36.17.525,EmotionalValenceMemoryRecall,2024.1.5,None,2024-11-29 22h36.32.474256 +0530,
,,,,,,,,,,,,,,21,0,21,0,241.2330923001282,,,,,,,,,,,,,,,,,,,,,,,,,,,,,,,,,,,,,,241.2162721999921,241.2330923001282,241.2330923001282,0.006971700116991997,251.2212294000201,alone,[],[],[],[],[],[],[],01,001,2024-11-29_22h36.17.525,EmotionalValenceMemoryRecall,2024.1.5,None,2024-11-29 22h36.32.474256 +0530,
,,,,,,,,,,,,,,22,0,22,0,251.23808200005442,,,,,,,,,,,,,,,,,,,,,,,,,,,,,,,,,,,,,,251.22316629998386,251.23808200005442,251.23808200005442,0.013830000068992376,252.22169549996033,,[-0.032407407407407406],[-0.29814814814814816],[1],[0],[0],[0.9964640997350216],['Instr'],01,001,2024-11-29_22h36.17.525,EmotionalValenceMemoryRecall,2024.1.5,None,2024-11-29 22h36.32.474256 +0530,
,,,,,,,,,,,,,,23,0,23,0,252.23923319997266,,,,,,,,,,,,,,,,,,,,,,,,,,,,,,,,,,,,,,252.22387220012024,252.23923319997266,252.23923319997266,0.0015922002494335175,262.227876199875,,[],[],[],[],[],[],[],01,001,2024-11-29_22h36.17.525,EmotionalValenceMemoryRecall,2024.1.5,None,2024-11-29 22h36.32.474256 +0530,
,,,,,,,,,,,,,,24,0,24,0,262.2448180997744,,,,,,,,,,,,,,,,,,,,,,,,,,,,,,,,,,,,,,262.22983550000936,262.2448180997744,262.2448180997744,0.00752260023728013,272.2350547998212,,[],[],[],[],[],[],[],01,001,2024-11-29_22h36.17.525,EmotionalValenceMemoryRecall,2024.1.5,None,2024-11-29 22h36.32.474256 +0530,
