neg_words,math,trials.thisRepN,trials.thisTrialN,trials.thisN,trials.thisIndex,trials_2.thisRepN,trials_2.thisTrialN,trials_2.thisN,trials_2.thisIndex,trials_3.thisRepN,trials_3.thisTrialN,trials_3.thisN,trials_3.thisIndex,trials_4.thisRepN,trials_4.thisTrialN,trials_4.thisN,trials_4.thisIndex,thisRow.t,notes,Intro.started,Introduction.started,key_resp.started,Intro.stopped,key_resp.keys,key_resp.rt,key_resp.duration,Words.started,key_resp_2.started,text.started,Words.stopped,key_resp_2.keys,key_resp_2.rt,key_resp_2.duration,DisTask.started,task.started,textbox.started,InstText.started,mouse.started,DisTask.stopped,textbox.text,mouse.x,mouse.y,mouse.leftButton,mouse.midButton,mouse.rightButton,mouse.time,mouse.clicked_name,Recall.started,RecallTask.started,key_resp_3.started,Recall.stopped,key_resp_3.keys,key_resp_3.rt,key_resp_3.duration,Testing.started,TestAns.started,Instr.started,mouse_2.started,Testing.stopped,TestAns.text,mouse_2.x,mouse_2.y,mouse_2.leftButton,mouse_2.midButton,mouse_2.rightButton,mouse_2.time,mouse_2.clicked_name,participant,session,date,expName,psychopyVersion,frameRate,expStart,
,,0,0,0,0,,,,,,,,,,,,,0.006360700004734099,,0.0028440000023692846,0.006360700004734099,1.0116031999932602,1.3875689000124112,space,0.3531972999917343,None,,,,,,,,,,,,,,,,,,,,,,,,,,,,,,,,,,,,,,,,,,04,001,2024-12-04_11h04.00.731,EmotionalValenceMemoryRecall,2024.1.5,None,2024-12-04 11h04.11.222196 +0530,
lost,,,,,,0,0,0,4,,,,,,,,,1.4130975999869406,,,,,,,,,1.4007465000031516,1.4130975999869406,2.8934475000132807,5.409718300012173,left,3.9914611999993213,None,,,,,,,,,,,,,,,,,,,,,,,,,,,,,,,,,,,04,001,2024-12-04_11h04.00.731,EmotionalValenceMemoryRecall,2024.1.5,None,2024-12-04 11h04.11.222196 +0530,
poison,,,,,,0,1,1,22,,,,,,,,,5.424046000000089,,,,,,,,,5.411054900003364,5.424046000000089,6.922624099999666,7.707828299986431,left,2.27763359999517,None,,,,,,,,,,,,,,,,,,,,,,,,,,,,,,,,,,,04,001,2024-12-04_11h04.00.731,EmotionalValenceMemoryRecall,2024.1.5,None,2024-12-04 11h04.11.222196 +0530,
fear,,,,,,0,2,2,16,,,,,,,,,7.722090399998706,,,,,,,,,7.708675200003199,7.722090399998706,9.220392299990635,10.055526300013298,left,2.3187392999825533,None,,,,,,,,,,,,,,,,,,,,,,,,,,,,,,,,,,,04,001,2024-12-04_11h04.00.731,EmotionalValenceMemoryRecall,2024.1.5,None,2024-12-04 11h04.11.222196 +0530,
insult,,,,,,0,3,3,18,,,,,,,,,10.069828100007726,,,,,,,,,10.056441599997925,10.069828100007726,11.568448500009254,12.35301530000288,left,2.2708611999987625,None,,,,,,,,,,,,,,,,,,,,,,,,,,,,,,,,,,,04,001,2024-12-04_11h04.00.731,EmotionalValenceMemoryRecall,2024.1.5,None,2024-12-04 11h04.11.222196 +0530,
rape,,,,,,0,4,4,15,,,,,,,,,12.367446799995378,,,,,,,,,12.353845600009663,12.367446799995378,13.866311799996765,15.500270699994871,left,3.1236524999840185,None,,,,,,,,,,,,,,,,,,,,,,,,,,,,,,,,,,,04,001,2024-12-04_11h04.00.731,EmotionalValenceMemoryRecall,2024.1.5,None,2024-12-04 11h04.11.222196 +0530,
grief,,,,,,0,5,5,21,,,,,,,,,15.514472700015176,,,,,,,,,15.50118379999185,15.514472700015176,17.013310300011653,17.79790320000029,left,2.2782395999820437,None,,,,,,,,,,,,,,,,,,,,,,,,,,,,,,,,,,,04,001,2024-12-04_11h04.00.731,EmotionalValenceMemoryRecall,2024.1.5,None,2024-12-04 11h04.11.222196 +0530,
betray,,,,,,0,6,6,14,,,,,,,,,17.812483199988492,,,,,,,,,17.798751299997093,17.812483199988492,19.311268499994185,20.046325500006787,left,2.230126400012523,None,,,,,,,,,,,,,,,,,,,,,,,,,,,,,,,,,,,04,001,2024-12-04_11h04.00.731,EmotionalValenceMemoryRecall,2024.1.5,None,2024-12-04 11h04.11.222196 +0530,
loser,,,,,,0,7,7,5,,,,,,,,,20.06030300000566,,,,,,,,,20.047317399992608,20.06030300000566,21.558888900006423,22.69380850001471,left,2.6303420000185724,None,,,,,,,,,,,,,,,,,,,,,,,,,,,,,,,,,,,04,001,2024-12-04_11h04.00.731,EmotionalValenceMemoryRecall,2024.1.5,None,2024-12-04 11h04.11.222196 +0530,
crime,,,,,,0,8,8,11,,,,,,,,,22.70799910000642,,,,,,,,,22.69460089999484,22.70799910000642,24.20663619998959,24.82476350001525,left,2.1086332999984734,None,,,,,,,,,,,,,,,,,,,,,,,,,,,,,,,,,,,04,001,2024-12-04_11h04.00.731,EmotionalValenceMemoryRecall,2024.1.5,None,2024-12-04 11h04.11.222196 +0530,
lie,,,,,,0,9,9,7,,,,,,,,,24.839400900003966,,,,,,,,,24.825714100006735,24.839400900003966,26.338321899995208,27.45611219998682,left,2.6067897000175435,None,,,,,,,,,,,,,,,,,,,,,,,,,,,,,,,,,,,04,001,2024-12-04_11h04.00.731,EmotionalValenceMemoryRecall,2024.1.5,None,2024-12-04 11h04.11.222196 +0530,
rage,,,,,,0,10,10,9,,,,,,,,,27.47045339999022,,,,,,,,,27.456951500003925,27.47045339999022,28.96903169999132,29.587090499990154,left,2.110219700000016,None,,,,,,,,,,,,,,,,,,,,,,,,,,,,,,,,,,,04,001,2024-12-04_11h04.00.731,EmotionalValenceMemoryRecall,2024.1.5,None,2024-12-04 11h04.11.222196 +0530,
corpse,,,,,,0,11,11,17,,,,,,,,,29.601643000001786,,,,,,,,,29.58799060000456,29.601643000001786,31.100213800003985,31.785029199993005,left,2.168155299994396,None,,,,,,,,,,,,,,,,,,,,,,,,,,,,,,,,,,,04,001,2024-12-04_11h04.00.731,EmotionalValenceMemoryRecall,2024.1.5,None,2024-12-04 11h04.11.222196 +0530,
ugly,,,,,,0,12,12,0,,,,,,,,,31.79948929999955,,,,,,,,,31.786076699994737,31.79948929999955,33.29792449998786,33.98244059999706,left,2.1674002000072505,None,,,,,,,,,,,,,,,,,,,,,,,,,,,,,,,,,,,04,001,2024-12-04_11h04.00.731,EmotionalValenceMemoryRecall,2024.1.5,None,2024-12-04 11h04.11.222196 +0530,
thief,,,,,,0,13,13,19,,,,,,,,,33.99718320000102,,,,,,,,,33.98323149999487,33.99718320000102,35.49623240000801,36.53047689999221,left,2.530394899979001,None,,,,,,,,,,,,,,,,,,,,,,,,,,,,,,,,,,,04,001,2024-12-04_11h04.00.731,EmotionalValenceMemoryRecall,2024.1.5,None,2024-12-04 11h04.11.222196 +0530,
rotten,,,,,,0,14,14,8,,,,,,,,,36.54503810001188,,,,,,,,,36.53137010001228,36.54503810001188,38.04363790000207,38.84507559999474,left,2.296843299991451,None,,,,,,,,,,,,,,,,,,,,,,,,,,,,,,,,,,,04,001,2024-12-04_11h04.00.731,EmotionalValenceMemoryRecall,2024.1.5,None,2024-12-04 11h04.11.222196 +0530,
burial,,,,,,0,15,15,23,,,,,,,,,38.85972420001053,,,,,,,,,38.84584399999585,38.85972420001053,40.358603600005154,41.22619210000266,left,2.3527482000063173,None,,,,,,,,,,,,,,,,,,,,,,,,,,,,,,,,,,,04,001,2024-12-04_11h04.00.731,EmotionalValenceMemoryRecall,2024.1.5,None,2024-12-04 11h04.11.222196 +0530,
angry,,,,,,0,16,16,10,,,,,,,,,41.24056340000243,,,,,,,,,41.22701299999608,41.24056340000243,42.739284300012514,43.490444199997,left,2.2371463000017684,None,,,,,,,,,,,,,,,,,,,,,,,,,,,,,,,,,,,04,001,2024-12-04_11h04.00.731,EmotionalValenceMemoryRecall,2024.1.5,None,2024-12-04 11h04.11.222196 +0530,
knife,,,,,,0,17,17,2,,,,,,,,,43.50522339998861,,,,,,,,,43.49121629999718,43.50522339998861,45.00401279999642,46.02184060000582,left,2.5126071000122465,None,,,,,,,,,,,,,,,,,,,,,,,,,,,,,,,,,,,04,001,2024-12-04_11h04.00.731,EmotionalValenceMemoryRecall,2024.1.5,None,2024-12-04 11h04.11.222196 +0530,
demon,,,,,,0,18,18,20,,,,,,,,,46.0361213000142,,,,,,,,,46.022741900000256,46.0361213000142,47.5347635000071,48.15315530000953,left,2.106426600017585,None,,,,,,,,,,,,,,,,,,,,,,,,,,,,,,,,,,,04,001,2024-12-04_11h04.00.731,EmotionalValenceMemoryRecall,2024.1.5,None,2024-12-04 11h04.11.222196 +0530,
vomit,,,,,,0,19,19,12,,,,,,,,,48.16781660000561,,,,,,,,,48.153993100015214,48.16781660000561,49.666550499998266,50.25108340001316,left,2.0773231999774,None,,,,,,,,,,,,,,,,,,,,,,,,,,,,,,,,,,,04,001,2024-12-04_11h04.00.731,EmotionalValenceMemoryRecall,2024.1.5,None,2024-12-04 11h04.11.222196 +0530,
toxic,,,,,,0,20,20,13,,,,,,,,,50.26572110000416,,,,,,,,,50.25186990000657,50.26572110000416,51.7647011000081,52.39910119998967,left,2.1170126000070013,None,,,,,,,,,,,,,,,,,,,,,,,,,,,,,,,,,,,04,001,2024-12-04_11h04.00.731,EmotionalValenceMemoryRecall,2024.1.5,None,2024-12-04 11h04.11.222196 +0530,
crisis,,,,,,0,21,21,3,,,,,,,,,52.41402269998798,,,,,,,,,52.399913000001106,52.41402269998798,53.91242969999439,54.863531300012255,left,2.4406066000228748,None,,,,,,,,,,,,,,,,,,,,,,,,,,,,,,,,,,,04,001,2024-12-04_11h04.00.731,EmotionalValenceMemoryRecall,2024.1.5,None,2024-12-04 11h04.11.222196 +0530,
debt,,,,,,0,22,22,24,,,,,,,,,54.877874800004065,,,,,,,,,54.864444500009995,54.877874800004065,56.37674959999276,57.128647200006526,left,2.2487092999799643,None,,,,,,,,,,,,,,,,,,,,,,,,,,,,,,,,,,,04,001,2024-12-04_11h04.00.731,EmotionalValenceMemoryRecall,2024.1.5,None,2024-12-04 11h04.11.222196 +0530,
evil,,,,,,0,23,23,1,,,,,,,,,57.14345740000135,,,,,,,,,57.129610100004356,57.14345740000135,58.64136509998934,59.50881769999978,left,2.3498903999861795,None,,,,,,,,,,,,,,,,,,,,,,,,,,,,,,,,,,,04,001,2024-12-04_11h04.00.731,EmotionalValenceMemoryRecall,2024.1.5,None,2024-12-04 11h04.11.222196 +0530,
alone,,,,,,0,24,24,6,,,,,,,,,59.52333450000151,,,,,,,,,59.509588999993866,59.52333450000151,61.02229640001315,61.67391139999381,left,2.147671499988064,None,,,,,,,,,,,,,,,,,,,,,,,,,,,,,,,,,,,04,001,2024-12-04_11h04.00.731,EmotionalValenceMemoryRecall,2024.1.5,None,2024-12-04 11h04.11.222196 +0530,
,29 + 10 =,,,,,,,,,0,0,0,8,,,,,61.7209514999995,,,,,,,,,,,,,,,,61.68249860001379,61.7209514999995,61.7209514999995,61.7209514999995,0.025094900018302724,65.6536916999903,39,[-0.04259259259259259],[-0.31666666666666665],[1],[0],[0],[3.952869799977634],['InstText'],,,,,,,,,,,,,,,,,,,,,04,001,2024-12-04_11h04.00.731,EmotionalValenceMemoryRecall,2024.1.5,None,2024-12-04 11h04.11.222196 +0530,
,17 + 14 =,,,,,,,,,0,1,1,3,,,,,65.68182850000449,,,,,,,,,,,,,,,,65.65565950001474,65.68182850000449,65.68182850000449,65.68182850000449,0.009717700013425201,67.63455829999293,31,[-0.04259259259259259],[-0.31666666666666665],[1],[0],[0],[1.9683113000064623],['InstText'],,,,,,,,,,,,,,,,,,,,,04,001,2024-12-04_11h04.00.731,EmotionalValenceMemoryRecall,2024.1.5,None,2024-12-04 11h04.11.222196 +0530,
,32 - 45 =,,,,,,,,,0,2,2,6,,,,,67.66503329999978,,,,,,,,,,,,,,,,67.63588129999698,67.66503329999978,67.66503329999978,67.66503329999978,0.011565199994947761,73.47882240000763,-13,[-0.04259259259259259],[-0.31666666666666665],[1],[0],[0],[5.830567099998007],['InstText'],,,,,,,,,,,,,,,,,,,,,04,001,2024-12-04_11h04.00.731,EmotionalValenceMemoryRecall,2024.1.5,None,2024-12-04 11h04.11.222196 +0530,
,25 + 28 =,,,,,,,,,0,3,3,5,,,,,73.50665429999935,,,,,,,,,,,,,,,,73.48004689998925,73.50665429999935,73.50665429999935,73.50665429999935,0.009687900019343942,77.60916299998644,53,[-0.04259259259259259],[-0.31666666666666665],[1],[0],[0],[4.11848590002046],['InstText'],,,,,,,,,,,,,,,,,,,,,04,001,2024-12-04_11h04.00.731,EmotionalValenceMemoryRecall,2024.1.5,None,2024-12-04 11h04.11.222196 +0530,
,10 + 15 =,,,,,,,,,0,4,4,0,,,,,77.63416990000405,,,,,,,,,,,,,,,,77.61046590001206,77.63416990000405,77.63416990000405,77.63416990000405,0.0068549000134225935,79.17367829999421,25,[-0.04259259259259259],[-0.31666666666666665],[1],[0],[0],[1.5555343000160065],['InstText'],,,,,,,,,,,,,,,,,,,,,04,001,2024-12-04_11h04.00.731,EmotionalValenceMemoryRecall,2024.1.5,None,2024-12-04 11h04.11.222196 +0530,
,44 - 5 =,,,,,,,,,0,5,5,2,,,,,79.19837980001466,,,,,,,,,,,,,,,,79.17514519998804,79.19837980001466,79.19837980001466,79.19837980001466,0.006402700004400685,82.27111030000378,-9,[-0.04259259259259259],[-0.31666666666666665],[1],[0],[0],[3.088583299977472],['InstText'],,,,,,,,,,,,,,,,,,,,,04,001,2024-12-04_11h04.00.731,EmotionalValenceMemoryRecall,2024.1.5,None,2024-12-04 11h04.11.222196 +0530,
,40 - 44 =,,,,,,,,,0,6,6,11,,,,,82.29662179999286,,,,,,,,,,,,,,,,82.27229490000173,82.29662179999286,82.29662179999286,82.29662179999286,0.006803700001910329,84.18637260000105,-4,[-0.04259259259259259],[-0.31666666666666665],[1],[0],[0],[1.9063045999791939],['InstText'],,,,,,,,,,,,,,,,,,,,,04,001,2024-12-04_11h04.00.731,EmotionalValenceMemoryRecall,2024.1.5,None,2024-12-04 11h04.11.222196 +0530,
,16 + 12 =,,,,,,,,,0,7,7,12,,,,,84.21480220000376,,,,,,,,,,,,,,,,84.18771790000028,84.21480220000376,84.21480220000376,84.21480220000376,0.0097976999823004,86.18403510001372,28,[-0.04259259259259259],[-0.31666666666666665],[1],[0],[0],[1.9855909000034444],['InstText'],,,,,,,,,,,,,,,,,,,,,04,001,2024-12-04_11h04.00.731,EmotionalValenceMemoryRecall,2024.1.5,None,2024-12-04 11h04.11.222196 +0530,
,47 + 50 =,,,,,,,,,0,8,8,14,,,,,86.21019720000913,,,,,,,,,,,,,,,,86.1861416999891,86.21019720000913,86.21019720000913,86.21019720000913,0.0066331000125501305,88.58185159999994,97,[-0.04259259259259259],[-0.31666666666666665],[1],[0],[0],[2.3881294000020716],['InstText'],,,,,,,,,,,,,,,,,,,,,04,001,2024-12-04_11h04.00.731,EmotionalValenceMemoryRecall,2024.1.5,None,2024-12-04 11h04.11.222196 +0530,
,23 - 29 =,,,,,,,,,0,9,9,7,,,,,88.60639579998679,,,,,,,,,,,,,,,,88.58312289998867,88.60639579998679,88.60639579998679,88.60639579998679,0.0065990999864879996,91.82848249998642,-6,[-0.04259259259259259],[-0.31666666666666665],[1],[0],[0],[3.238139199995203],['InstText'],,,,,,,,,,,,,,,,,,,,,04,001,2024-12-04_11h04.00.731,EmotionalValenceMemoryRecall,2024.1.5,None,2024-12-04 11h04.11.222196 +0530,
,84 + 35 =,,,,,,,,,0,10,10,13,,,,,91.85503400000744,,,,,,,,,,,,,,,,91.82984409999335,91.85503400000744,91.85503400000744,91.85503400000744,0.00748209998710081,95.59164769999916,119,[-0.04259259259259259],[-0.31666666666666665],[1],[0],[0],[3.753363399999216],['InstText'],,,,,,,,,,,,,,,,,,,,,04,001,2024-12-04_11h04.00.731,EmotionalValenceMemoryRecall,2024.1.5,None,2024-12-04 11h04.11.222196 +0530,
,41 + 23 =,,,,,,,,,0,11,11,9,,,,,95.61520609998843,,,,,,,,,,,,,,,,95.59334920000401,95.61520609998843,95.61520609998843,95.61520609998843,0.0063208000210579485,97.87291820000974,64,[-0.04259259259259259],[-0.31666666666666665],[1],[0],[0],[2.2725377999886405],['InstText'],,,,,,,,,,,,,,,,,,,,,04,001,2024-12-04_11h04.00.731,EmotionalValenceMemoryRecall,2024.1.5,None,2024-12-04 11h04.11.222196 +0530,
,69 - 12 =,,,,,,,,,0,12,12,1,,,,,97.89648759999545,,,,,,,,,,,,,,,,97.87433359998977,97.89648759999545,97.89648759999545,97.89648759999545,0.0062172999896574765,103.86677220001002,57,[-0.04259259259259259],[-0.31666666666666665],[1],[0],[0],[5.985467999998946],['InstText'],,,,,,,,,,,,,,,,,,,,,04,001,2024-12-04_11h04.00.731,EmotionalValenceMemoryRecall,2024.1.5,None,2024-12-04 11h04.11.222196 +0530,
,32 - 21 =,,,,,,,,,0,13,13,4,,,,,103.88270740001462,,,,,,,,,,,,,,,,103.86756819998845,103.88270740001462,103.88270740001462,103.88270740001462,0.004943899984937161,106.1486714000057,11,[-0.04259259259259259],[-0.31666666666666665],[1],[0],[0],[2.275223600008758],['InstText'],,,,,,,,,,,,,,,,,,,,,04,001,2024-12-04_11h04.00.731,EmotionalValenceMemoryRecall,2024.1.5,None,2024-12-04 11h04.11.222196 +0530,
,28 + 31 =,,,,,,,,,0,14,14,10,,,,,106.17267520001042,,,,,,,,,,,,,,,,106.14993340001092,106.17267520001042,106.17267520001042,106.17267520001042,0.006835499982116744,110.52800510000088,59,[-0.04259259259259259],[-0.31666666666666665],[1],[0],[0],[4.370422000007238],['InstText'],,,,,,,,,,,,,,,,,,,,,04,001,2024-12-04_11h04.00.731,EmotionalValenceMemoryRecall,2024.1.5,None,2024-12-04 11h04.11.222196 +0530,
,,,,,,,,,,,,,,,,,,,,,,,,,,,,,,,,,,,,,,,,,,,,,,,,110.5290810999868,110.54246990001411,110.54246990001411,118.5709041999944,space,8.017200400005095,None,,,,,,,,,,,,,,04,001,2024-12-04_11h04.00.731,EmotionalValenceMemoryRecall,2024.1.5,None,2024-12-04 11h04.11.222196 +0530,
,,,,,,,,,,,,,,0,0,0,0,118.59014779998688,,,,,,,,,,,,,,,,,,,,,,,,,,,,,,,,,,,,,118.57289060001494,118.59014779998688,118.59014779998688,0.003184100001817569,121.46776160001173, evil,[-0.04259259259259259],[-0.31666666666666665],[1],[0],[0],[2.8926566000154708],['Instr'],04,001,2024-12-04_11h04.00.731,EmotionalValenceMemoryRecall,2024.1.5,None,2024-12-04 11h04.11.222196 +0530,
,,,,,,,,,,,,,,1,0,1,0,121.48982149999938,,,,,,,,,,,,,,,,,,,,,,,,,,,,,,,,,,,,,121.47160200000508,121.48982149999938,121.48982149999938,0.0015307999856304377,123.24932360000093,rape,[-0.04259259259259259],[-0.31666666666666665],[1],[0],[0],[1.7755037000169978],['Instr'],04,001,2024-12-04_11h04.00.731,EmotionalValenceMemoryRecall,2024.1.5,None,2024-12-04 11h04.11.222196 +0530,
,,,,,,,,,,,,,,2,0,2,0,123.2675268999883,,,,,,,,,,,,,,,,,,,,,,,,,,,,,,,,,,,,,123.25129210000159,123.2675268999883,123.2675268999883,0.0014127999893389642,124.81509879999794,demon,[-0.04259259259259259],[-0.31666666666666665],[1],[0],[0],[1.5616916999861132],['Instr'],04,001,2024-12-04_11h04.00.731,EmotionalValenceMemoryRecall,2024.1.5,None,2024-12-04 11h04.11.222196 +0530,
,,,,,,,,,,,,,,3,0,3,0,124.83367970000836,,,,,,,,,,,,,,,,,,,,,,,,,,,,,,,,,,,,,124.81750699999975,124.83367970000836,124.83367970000836,0.0015069000073708594,129.3442076999927,crisis,[-0.04259259259259259],[-0.31666666666666665],[1],[0],[0],[4.524431900004856],['Instr'],04,001,2024-12-04_11h04.00.731,EmotionalValenceMemoryRecall,2024.1.5,None,2024-12-04 11h04.11.222196 +0530,
,,,,,,,,,,,,,,4,0,4,0,129.36279089999152,,,,,,,,,,,,,,,,,,,,,,,,,,,,,,,,,,,,,129.3461771000002,129.36279089999152,129.36279089999152,0.001429600000847131,131.00891949998913,debt,[-0.04259259259259259],[-0.31666666666666665],[1],[0],[0],[1.660387100011576],['Instr'],04,001,2024-12-04_11h04.00.731,EmotionalValenceMemoryRecall,2024.1.5,None,2024-12-04 11h04.11.222196 +0530,
,,,,,,,,,,,,,,5,0,5,0,131.02772479999112,,,,,,,,,,,,,,,,,,,,,,,,,,,,,,,,,,,,,131.0109749000112,131.02772479999112,131.02772479999112,0.0016147999849636108,133.5562721999886,betrayal,[-0.04259259259259259],[-0.31666666666666665],[1],[0],[0],[2.5430347000074107],['Instr'],04,001,2024-12-04_11h04.00.731,EmotionalValenceMemoryRecall,2024.1.5,None,2024-12-04 11h04.11.222196 +0530,
,,,,,,,,,,,,,,6,0,6,0,133.57549250000739,,,,,,,,,,,,,,,,,,,,,,,,,,,,,,,,,,,,,133.55826349998824,133.57549250000739,133.57549250000739,0.001508399989688769,134.88889209998888,lost,[-0.04259259259259259],[-0.31666666666666665],[1],[0],[0],[1.3283964000002015],['Instr'],04,001,2024-12-04_11h04.00.731,EmotionalValenceMemoryRecall,2024.1.5,None,2024-12-04 11h04.11.222196 +0530,
,,,,,,,,,,,,,,7,0,7,0,134.9071241999918,,,,,,,,,,,,,,,,,,,,,,,,,,,,,,,,,,,,,134.89116689999355,134.9071241999918,134.9071241999918,0.0017835999897215515,136.47014310001396,loser,[-0.04259259259259259],[-0.31666666666666665],[1],[0],[0],[1.5767020999919623],['Instr'],04,001,2024-12-04_11h04.00.731,EmotionalValenceMemoryRecall,2024.1.5,None,2024-12-04 11h04.11.222196 +0530,
,,,,,,,,,,,,,,8,0,8,0,136.4882890000008,,,,,,,,,,,,,,,,,,,,,,,,,,,,,,,,,,,,,136.472125100001,136.4882890000008,136.4882890000008,0.0016352999955415726,146.47596619999968,,[],[],[],[],[],[],[],04,001,2024-12-04_11h04.00.731,EmotionalValenceMemoryRecall,2024.1.5,None,2024-12-04 11h04.11.222196 +0530,
,,,,,,,,,,,,,,9,0,9,0,146.49413810000988,,,,,,,,,,,,,,,,,,,,,,,,,,,,,,,,,,,,,146.47771750000538,146.49413810000988,146.49413810000988,0.006925900001078844,149.79140310001094,guilt,[-0.04259259259259259],[-0.31666666666666665],[1],[0],[0],[3.311575300002005],['Instr'],04,001,2024-12-04_11h04.00.731,EmotionalValenceMemoryRecall,2024.1.5,None,2024-12-04 11h04.11.222196 +0530,
,,,,,,,,,,,,,,10,0,10,0,149.8090077000088,,,,,,,,,,,,,,,,,,,,,,,,,,,,,,,,,,,,,149.79363430000376,149.8090077000088,149.8090077000088,0.0015371000044979155,151.9554793999996,grief,[-0.04259259259259259],[-0.31666666666666665],[1],[0],[0],[2.1594653999782167],['Instr'],04,001,2024-12-04_11h04.00.731,EmotionalValenceMemoryRecall,2024.1.5,None,2024-12-04 11h04.11.222196 +0530,
,,,,,,,,,,,,,,11,0,11,0,151.971787699993,,,,,,,,,,,,,,,,,,,,,,,,,,,,,,,,,,,,,151.957682200009,151.971787699993,151.971787699993,0.0017940000107046217,153.53856700001052,fear,[-0.04259259259259259],[-0.31666666666666665],[1],[0],[0],[1.5788653999916278],['Instr'],04,001,2024-12-04_11h04.00.731,EmotionalValenceMemoryRecall,2024.1.5,None,2024-12-04 11h04.11.222196 +0530,
,,,,,,,,,,,,,,12,0,12,0,153.55801410001004,,,,,,,,,,,,,,,,,,,,,,,,,,,,,,,,,,,,,153.54070579999825,153.55801410001004,153.55801410001004,0.0015539999876637012,154.96961870000814,anger,[-0.04259259259259259],[-0.31666666666666665],[1],[0],[0],[1.4267166999925394],['Instr'],04,001,2024-12-04_11h04.00.731,EmotionalValenceMemoryRecall,2024.1.5,None,2024-12-04 11h04.11.222196 +0530,
,,,,,,,,,,,,,,13,0,13,0,154.9850831000076,,,,,,,,,,,,,,,,,,,,,,,,,,,,,,,,,,,,,154.97150600000168,154.9850831000076,154.9850831000076,0.0015463000163435936,156.3354585999914,rage,[-0.04259259259259259],[-0.31666666666666665],[1],[0],[0],[1.3616585999843664],['Instr'],04,001,2024-12-04_11h04.00.731,EmotionalValenceMemoryRecall,2024.1.5,None,2024-12-04 11h04.11.222196 +0530,
,,,,,,,,,,,,,,14,0,14,0,156.35327200000756,,,,,,,,,,,,,,,,,,,,,,,,,,,,,,,,,,,,,156.33738829998765,156.35327200000756,156.35327200000756,0.0014521999983116984,162.3958750999882,corpse,[-0.04259259259259259],[-0.31666666666666665],[1],[0],[0],[6.056360399990808],['Instr'],04,001,2024-12-04_11h04.00.731,EmotionalValenceMemoryRecall,2024.1.5,None,2024-12-04 11h04.11.222196 +0530,
,,,,,,,,,,,,,,15,0,15,0,162.4230196000135,,,,,,,,,,,,,,,,,,,,,,,,,,,,,,,,,,,,,162.4013557000144,162.4230196000135,162.4230196000135,0.0014853999891784042,164.57755260000704,theif,[-0.04259259259259259],[-0.31666666666666665],[1],[0],[0],[2.1740663000091445],['Instr'],04,001,2024-12-04_11h04.00.731,EmotionalValenceMemoryRecall,2024.1.5,None,2024-12-04 11h04.11.222196 +0530,
,,,,,,,,,,,,,,16,0,16,0,164.59568830000353,,,,,,,,,,,,,,,,,,,,,,,,,,,,,,,,,,,,,164.57969760001288,164.59568830000353,164.59568830000353,0.001510200003394857,174.5829276999866,,[],[],[],[],[],[],[],04,001,2024-12-04_11h04.00.731,EmotionalValenceMemoryRecall,2024.1.5,None,2024-12-04 11h04.11.222196 +0530,
,,,,,,,,,,,,,,17,0,17,0,174.59934750001412,,,,,,,,,,,,,,,,,,,,,,,,,,,,,,,,,,,,,174.5849307999888,174.59934750001412,174.59934750001412,0.006729900022037327,176.49978919999558,crime,[-0.04259259259259259],[-0.31666666666666665],[1],[0],[0],[1.9124197000055574],['Instr'],04,001,2024-12-04_11h04.00.731,EmotionalValenceMemoryRecall,2024.1.5,None,2024-12-04 11h04.11.222196 +0530,
,,,,,,,,,,,,,,18,0,18,0,176.51911500000278,,,,,,,,,,,,,,,,,,,,,,,,,,,,,,,,,,,,,176.5019650000031,176.51911500000278,176.51911500000278,0.0014801000070292503,186.5052250000008,,[],[],[],[],[],[],[],04,001,2024-12-04_11h04.00.731,EmotionalValenceMemoryRecall,2024.1.5,None,2024-12-04 11h04.11.222196 +0530,
,,,,,,,,,,,,,,19,0,19,0,186.52282449998893,,,,,,,,,,,,,,,,,,,,,,,,,,,,,,,,,,,,,186.50759910000488,186.52282449998893,186.52282449998893,0.007321800017962232,194.66615209999145,knife,[-0.04259259259259259],[-0.31666666666666665],[1],[0],[0],[8.15600839999388],['Instr'],04,001,2024-12-04_11h04.00.731,EmotionalValenceMemoryRecall,2024.1.5,None,2024-12-04 11h04.11.222196 +0530,
,,,,,,,,,,,,,,20,0,20,0,194.68499700000393,,,,,,,,,,,,,,,,,,,,,,,,,,,,,,,,,,,,,194.66880330001004,194.68499700000393,194.68499700000393,0.001683199981926009,204.67166240001097,,[],[],[],[],[],[],[],04,001,2024-12-04_11h04.00.731,EmotionalValenceMemoryRecall,2024.1.5,None,2024-12-04 11h04.11.222196 +0530,
,,,,,,,,,,,,,,21,0,21,0,204.68804070001352,,,,,,,,,,,,,,,,,,,,,,,,,,,,,,,,,,,,,204.6734593999863,204.68804070001352,204.68804070001352,0.00617229999625124,214.67898900000728,,[],[],[],[],[],[],[],04,001,2024-12-04_11h04.00.731,EmotionalValenceMemoryRecall,2024.1.5,None,2024-12-04 11h04.11.222196 +0530,
,,,,,,,,,,,,,,,,,,214.69545989998733,,,,,,,,,,,,,,,,,,,,,,,,,,,,,,,,,,,,,214.68077599999378,214.69545989998733,214.69545989998733,0.013474599982146174,,,,,,,,,,,,,,,,,
