neg_words,math,trials.thisRepN,trials.thisTrialN,trials.thisN,trials.thisIndex,trials_2.thisRepN,trials_2.thisTrialN,trials_2.thisN,trials_2.thisIndex,trials_3.thisRepN,trials_3.thisTrialN,trials_3.thisN,trials_3.thisIndex,trials_4.thisRepN,trials_4.thisTrialN,trials_4.thisN,trials_4.thisIndex,thisRow.t,notes,Intro.started,Introduction.started,key_resp.started,Intro.stopped,key_resp.keys,key_resp.rt,key_resp.duration,Words.started,key_resp_2.started,text.started,Words.stopped,key_resp_2.keys,key_resp_2.rt,key_resp_2.duration,text.stopped,DisTask.started,task.started,textbox.started,InstText.started,mouse.started,DisTask.stopped,textbox.text,mouse.x,mouse.y,mouse.leftButton,mouse.midButton,mouse.rightButton,mouse.time,mouse.clicked_name,Recall.started,RecallTask.started,key_resp_3.started,Recall.stopped,key_resp_3.keys,key_resp_3.rt,key_resp_3.duration,Testing.started,TestAns.started,Instr.started,mouse_2.started,Testing.stopped,TestAns.text,mouse_2.x,mouse_2.y,mouse_2.leftButton,mouse_2.midButton,mouse_2.rightButton,mouse_2.time,mouse_2.clicked_name,participant,session,date,expName,psychopyVersion,frameRate,expStart,
,,0,0,0,0,,,,,,,,,,,,,0.007526799978222698,,0.004157499992288649,0.007526799978222698,1.0054673999838997,4.448412900004769,space,3.415987899992615,None,,,,,,,,,,,,,,,,,,,,,,,,,,,,,,,,,,,,,,,,,,,05,001,2024-12-04_11h19.19.662,EmotionalValenceMemoryRecall,2024.1.5,None,2024-12-04 11h19.30.471293 +0530,
crisis,,,,,,0,0,0,3,,,,,,,,,4.479691799991997,,,,,,,,,4.462307899986627,4.479691799991997,5.9508201999997254,8.650748799991561,left,4.162634099979186,None,,,,,,,,,,,,,,,,,,,,,,,,,,,,,,,,,,,,05,001,2024-12-04_11h19.19.662,EmotionalValenceMemoryRecall,2024.1.5,None,2024-12-04 11h19.30.471293 +0530,
knife,,,,,,0,1,1,2,,,,,,,,,8.665394999989076,,,,,,,,,8.652333699981682,8.665394999989076,10.16323750000447,10.748714399989694,right,2.0806411000085063,None,,,,,,,,,,,,,,,,,,,,,,,,,,,,,,,,,,,,05,001,2024-12-04_11h19.19.662,EmotionalValenceMemoryRecall,2024.1.5,None,2024-12-04 11h19.30.471293 +0530,
burial,,,,,,0,2,2,23,,,,,,,,,10.762456900003599,,,,,,,,,10.749648299999535,10.762456900003599,12.261326699983329,15.293738599983044,left,4.514375900005689,None,15.275587299984181,,,,,,,,,,,,,,,,,,,,,,,,,,,,,,,,,,,05,001,2024-12-04_11h19.19.662,EmotionalValenceMemoryRecall,2024.1.5,None,2024-12-04 11h19.30.471293 +0530,
rotten,,,,,,0,3,3,8,,,,,,,,,15.308348199992906,,,,,,,,,15.294699099991703,15.308348199992906,16.80688600000576,17.958249599992996,left,2.6432895999751054,None,,,,,,,,,,,,,,,,,,,,,,,,,,,,,,,,,,,,05,001,2024-12-04_11h19.19.662,EmotionalValenceMemoryRecall,2024.1.5,None,2024-12-04 11h19.30.471293 +0530,
angry,,,,,,0,4,4,10,,,,,,,,,17.972953899996355,,,,,,,,,17.95900800000527,17.972953899996355,19.471667799982242,20.25579289998859,left,2.2788600999920163,None,,,,,,,,,,,,,,,,,,,,,,,,,,,,,,,,,,,,05,001,2024-12-04_11h19.19.662,EmotionalValenceMemoryRecall,2024.1.5,None,2024-12-04 11h19.30.471293 +0530,
rape,,,,,,0,5,5,15,,,,,,,,,20.270698299980722,,,,,,,,,20.256579099979717,20.270698299980722,21.769387299980735,22.587145400000736,left,2.3062835999880917,None,,,,,,,,,,,,,,,,,,,,,,,,,,,,,,,,,,,,05,001,2024-12-04_11h19.19.662,EmotionalValenceMemoryRecall,2024.1.5,None,2024-12-04 11h19.30.471293 +0530,
thief,,,,,,0,6,6,19,,,,,,,,,22.601588199991966,,,,,,,,,22.588053299987223,22.601588199991966,24.100319799996214,24.568785199982813,left,1.9556129999982659,None,,,,,,,,,,,,,,,,,,,,,,,,,,,,,,,,,,,,05,001,2024-12-04_11h19.19.662,EmotionalValenceMemoryRecall,2024.1.5,None,2024-12-04 11h19.30.471293 +0530,
loser,,,,,,0,7,7,5,,,,,,,,,24.583259299979545,,,,,,,,,24.569688699994003,24.583259299979545,26.081903299986152,26.583765299990773,left,1.994609399989713,None,,,,,,,,,,,,,,,,,,,,,,,,,,,,,,,,,,,,05,001,2024-12-04_11h19.19.662,EmotionalValenceMemoryRecall,2024.1.5,None,2024-12-04 11h19.30.471293 +0530,
poison,,,,,,0,8,8,22,,,,,,,,,26.597991499991622,,,,,,,,,26.584617799991975,26.597991499991622,28.09663049998926,28.481891799980076,left,1.8803691000211984,None,,,,,,,,,,,,,,,,,,,,,,,,,,,,,,,,,,,,05,001,2024-12-04_11h19.19.662,EmotionalValenceMemoryRecall,2024.1.5,None,2024-12-04 11h19.30.471293 +0530,
ugly,,,,,,0,9,9,0,,,,,,,,,28.49621319997823,,,,,,,,,28.483045000000857,28.49621319997823,29.99480719998246,30.94574080000166,left,2.434870900004171,None,,,,,,,,,,,,,,,,,,,,,,,,,,,,,,,,,,,,05,001,2024-12-04_11h19.19.662,EmotionalValenceMemoryRecall,2024.1.5,None,2024-12-04 11h19.30.471293 +0530,
corpse,,,,,,0,10,10,17,,,,,,,,,30.96061949999421,,,,,,,,,30.946597500005737,30.96061949999421,32.45940399999381,32.91084929998033,left,1.9455727000022307,None,,,,,,,,,,,,,,,,,,,,,,,,,,,,,,,,,,,,05,001,2024-12-04_11h19.19.662,EmotionalValenceMemoryRecall,2024.1.5,None,2024-12-04 11h19.30.471293 +0530,
lost,,,,,,0,11,11,4,,,,,,,,,32.925476100004744,,,,,,,,,32.91171759998542,32.925476100004744,34.42414319998352,34.94245849997969,left,2.0088555999973323,None,,,,,,,,,,,,,,,,,,,,,,,,,,,,,,,,,,,,05,001,2024-12-04_11h19.19.662,EmotionalValenceMemoryRecall,2024.1.5,None,2024-12-04 11h19.30.471293 +0530,
crime,,,,,,0,12,12,11,,,,,,,,,34.95683419998386,,,,,,,,,34.9435766999959,34.95683419998386,36.455721299978904,37.09023819997674,left,2.1305947999935597,None,,,,,,,,,,,,,,,,,,,,,,,,,,,,,,,,,,,,05,001,2024-12-04_11h19.19.662,EmotionalValenceMemoryRecall,2024.1.5,None,2024-12-04 11h19.30.471293 +0530,
evil,,,,,,0,13,13,1,,,,,,,,,37.1050301999785,,,,,,,,,37.091167499980656,37.1050301999785,38.603585899982136,39.25513459998183,left,2.14440660001128,None,,,,,,,,,,,,,,,,,,,,,,,,,,,,,,,,,,,,05,001,2024-12-04_11h19.19.662,EmotionalValenceMemoryRecall,2024.1.5,None,2024-12-04 11h19.30.471293 +0530,
grief,,,,,,0,14,14,21,,,,,,,,,39.26948309998261,,,,,,,,,39.25592019999749,39.26948309998261,40.768253099988215,41.23642599998857,left,1.9586344999843277,None,,,,,,,,,,,,,,,,,,,,,,,,,,,,,,,,,,,,05,001,2024-12-04_11h19.19.662,EmotionalValenceMemoryRecall,2024.1.5,None,2024-12-04 11h19.30.471293 +0530,
rage,,,,,,0,15,15,9,,,,,,,,,41.25115899997763,,,,,,,,,41.23731989998487,41.25115899997763,42.74962499999674,43.05157280000276,left,1.7942904999945313,None,,,,,,,,,,,,,,,,,,,,,,,,,,,,,,,,,,,,05,001,2024-12-04_11h19.19.662,EmotionalValenceMemoryRecall,2024.1.5,None,2024-12-04 11h19.30.471293 +0530,
alone,,,,,,0,16,16,6,,,,,,,,,43.06619739998132,,,,,,,,,43.05241939998814,43.06619739998132,44.56480619998183,45.049462199996924,left,1.9763220000022557,None,,,,,,,,,,,,,,,,,,,,,,,,,,,,,,,,,,,,05,001,2024-12-04_11h19.19.662,EmotionalValenceMemoryRecall,2024.1.5,None,2024-12-04 11h19.30.471293 +0530,
lie,,,,,,0,17,17,7,,,,,,,,,45.064294299983885,,,,,,,,,45.05034829999204,45.064294299983885,46.56274689998827,46.93087589999777,left,1.856050900008995,None,,,,,,,,,,,,,,,,,,,,,,,,,,,,,,,,,,,,05,001,2024-12-04_11h19.19.662,EmotionalValenceMemoryRecall,2024.1.5,None,2024-12-04 11h19.30.471293 +0530,
fear,,,,,,0,18,18,16,,,,,,,,,46.945603300002404,,,,,,,,,46.93171129998518,46.945603300002404,48.4444780999911,48.76291079999646,left,1.8064801000000443,None,,,,,,,,,,,,,,,,,,,,,,,,,,,,,,,,,,,,05,001,2024-12-04_11h19.19.662,EmotionalValenceMemoryRecall,2024.1.5,None,2024-12-04 11h19.30.471293 +0530,
betray,,,,,,0,19,19,14,,,,,,,,,48.77722889999859,,,,,,,,,48.76389059997746,48.77722889999859,50.27576349998708,50.57785309999599,left,1.7913042999862228,None,,,,,,,,,,,,,,,,,,,,,,,,,,,,,,,,,,,,05,001,2024-12-04_11h19.19.662,EmotionalValenceMemoryRecall,2024.1.5,None,2024-12-04 11h19.30.471293 +0530,
vomit,,,,,,0,20,20,12,,,,,,,,,50.592178999999305,,,,,,,,,50.57879309999407,50.592178999999305,52.09095329997945,52.725473900005454,left,2.1239870999997947,None,,,,,,,,,,,,,,,,,,,,,,,,,,,,,,,,,,,,05,001,2024-12-04_11h19.19.662,EmotionalValenceMemoryRecall,2024.1.5,None,2024-12-04 11h19.30.471293 +0530,
debt,,,,,,0,21,21,24,,,,,,,,,52.74012410000432,,,,,,,,,52.726694899989525,52.74012410000432,54.238927200000035,59.1030731999781,right,6.347797599999467,None,57.252827499993145,,,,,,,,,,,,,,,,,,,,,,,,,,,,,,,,,,,05,001,2024-12-04_11h19.19.662,EmotionalValenceMemoryRecall,2024.1.5,None,2024-12-04 11h19.30.471293 +0530,
toxic,,,,,,0,22,22,13,,,,,,,,,59.11741389997769,,,,,,,,,59.103951800003415,59.11741389997769,,60.585034999996424,left,1.4570877999940421,None,,,,,,,,,,,,,,,,,,,,,,,,,,,,,,,,,,,,05,001,2024-12-04_11h19.19.662,EmotionalValenceMemoryRecall,2024.1.5,None,2024-12-04 11h19.30.471293 +0530,
insult,,,,,,0,23,23,18,,,,,,,,,60.5996499999892,,,,,,,,,60.58609239998623,60.5996499999892,62.09846929999185,62.63308869997854,left,2.027670900017256,None,,,,,,,,,,,,,,,,,,,,,,,,,,,,,,,,,,,,05,001,2024-12-04_11h19.19.662,EmotionalValenceMemoryRecall,2024.1.5,None,2024-12-04 11h19.30.471293 +0530,
demon,,,,,,0,24,24,20,,,,,,,,,62.64786729999469,,,,,,,,,62.63393729997915,62.64786729999469,64.14638079999713,64.49795940000331,left,1.8363561000151094,None,,,,,,,,,,,,,,,,,,,,,,,,,,,,,,,,,,,,05,001,2024-12-04_11h19.19.662,EmotionalValenceMemoryRecall,2024.1.5,None,2024-12-04 11h19.30.471293 +0530,
,84 + 35 =,,,,,,,,,0,0,0,13,,,,,64.54282119998243,,,,,,,,,,,,,,,,,64.50639029999729,64.54282119998243,64.54282119998243,64.54282119998243,0.02360640000551939,69.94290080000064,119,"[-0.11296296296296296, 0.07037037037037037]","[0.175, -0.2972222222222222]","[1, 1]","[0, 0]","[0, 0]","[3.354770300007658, 5.4192617000080645]",['InstText'],,,,,,,,,,,,,,,,,,,,,05,001,2024-12-04_11h19.19.662,EmotionalValenceMemoryRecall,2024.1.5,None,2024-12-04 11h19.30.471293 +0530,
,10 + 15 =,,,,,,,,,0,1,1,0,,,,,69.97276350000175,,,,,,,,,,,,,,,,,69.94499379998888,69.97276350000175,69.97276350000175,69.97276350000175,0.011138499976368621,71.50764799999888,25,[0.07037037037037037],[-0.2972222222222222],[1],[0],[0],[1.550585900025908],['InstText'],,,,,,,,,,,,,,,,,,,,,05,001,2024-12-04_11h19.19.662,EmotionalValenceMemoryRecall,2024.1.5,None,2024-12-04 11h19.30.471293 +0530,
,28 + 31 =,,,,,,,,,0,2,2,10,,,,,71.53589020000072,,,,,,,,,,,,,,,,,71.50898600000073,71.53589020000072,71.53589020000072,71.53589020000072,0.009590599976945668,72.60780379999778,,[0.07037037037037037],[-0.2972222222222222],[1],[0],[0],[1.088480200007325],['InstText'],,,,,,,,,,,,,,,,,,,,,05,001,2024-12-04_11h19.19.662,EmotionalValenceMemoryRecall,2024.1.5,None,2024-12-04 11h19.30.471293 +0530,
,32 - 21 =,,,,,,,,,0,3,3,4,,,,,72.63802869999199,,,,,,,,,,,,,,,,,72.60980360000394,72.63802869999199,72.63802869999199,72.63802869999199,0.011838400008855388,74.1556419999979,11,[0.07037037037037037],[-0.2972222222222222],[1],[0],[0],[1.532626900007017],['InstText'],,,,,,,,,,,,,,,,,,,,,05,001,2024-12-04_11h19.19.662,EmotionalValenceMemoryRecall,2024.1.5,None,2024-12-04 11h19.30.471293 +0530,
,69 - 12 =,,,,,,,,,0,4,4,1,,,,,74.18567629999598,,,,,,,,,,,,,,,,,74.1571219000034,74.18567629999598,74.18567629999598,74.18567629999598,0.011315599986119196,76.15335549999145,,[0.07037037037037037],[-0.2972222222222222],[1],[0],[0],[1.9840556999843102],['InstText'],,,,,,,,,,,,,,,,,,,,,05,001,2024-12-04_11h19.19.662,EmotionalValenceMemoryRecall,2024.1.5,None,2024-12-04 11h19.30.471293 +0530,
,32 - 45 =,,,,,,,,,0,5,5,6,,,,,76.17836689998512,,,,,,,,,,,,,,,,,76.1546948000032,76.17836689998512,76.17836689998512,76.17836689998512,0.006281100009800866,79.56715749998693,-13,[0.07037037037037037],[-0.2972222222222222],[1],[0],[0],[3.405228099989472],['InstText'],,,,,,,,,,,,,,,,,,,,,05,001,2024-12-04_11h19.19.662,EmotionalValenceMemoryRecall,2024.1.5,None,2024-12-04 11h19.30.471293 +0530,
,29 + 10 =,,,,,,,,,0,6,6,8,,,,,79.59429789998103,,,,,,,,,,,,,,,,,79.56843499999377,79.59429789998103,79.59429789998103,79.59429789998103,0.007188899995526299,81.68238899999415,39,[0.07037037037037037],[-0.2972222222222222],[1],[0],[0],[2.105693599994993],['InstText'],,,,,,,,,,,,,,,,,,,,,05,001,2024-12-04_11h19.19.662,EmotionalValenceMemoryRecall,2024.1.5,None,2024-12-04 11h19.30.471293 +0530,
,23 - 29 =,,,,,,,,,0,7,7,7,,,,,81.70622979998006,,,,,,,,,,,,,,,,,81.68363569999929,81.70622979998006,81.70622979998006,81.70622979998006,0.006452900008298457,84.04594349997933,-6,[0.07037037037037037],[-0.2972222222222222],[1],[0],[0],[2.354918099998031],['InstText'],,,,,,,,,,,,,,,,,,,,,05,001,2024-12-04_11h19.19.662,EmotionalValenceMemoryRecall,2024.1.5,None,2024-12-04 11h19.30.471293 +0530,
,40 - 44 =,,,,,,,,,0,8,8,11,,,,,84.0717372999934,,,,,,,,,,,,,,,,,84.04724749998422,84.0717372999934,84.0717372999934,84.0717372999934,0.00807320000603795,86.37765129999025,-4,[0.07037037037037037],[-0.2972222222222222],[1],[0],[0],[2.3212686000042595],['InstText'],,,,,,,,,,,,,,,,,,,,,05,001,2024-12-04_11h19.19.662,EmotionalValenceMemoryRecall,2024.1.5,None,2024-12-04 11h19.30.471293 +0530,
,44 - 5 =,,,,,,,,,0,9,9,2,,,,,86.40368160000071,,,,,,,,,,,,,,,,,86.37894159997813,86.40368160000071,86.40368160000071,86.40368160000071,0.00661680000484921,89.12514299998293,-39,[0.07037037037037037],[-0.2972222222222222],[1],[0],[0],[2.738711499987403],['InstText'],,,,,,,,,,,,,,,,,,,,,05,001,2024-12-04_11h19.19.662,EmotionalValenceMemoryRecall,2024.1.5,None,2024-12-04 11h19.30.471293 +0530,
,17 + 14 =,,,,,,,,,0,10,10,3,,,,,89.1538515999855,,,,,,,,,,,,,,,,,89.1266917999892,89.1538515999855,89.1538515999855,89.1538515999855,0.009998800000175834,89.85665659999358,,[0.07037037037037037],[-0.2972222222222222],[1],[0],[0],[0.7192886999982875],['InstText'],,,,,,,,,,,,,,,,,,,,,05,001,2024-12-04_11h19.19.662,EmotionalValenceMemoryRecall,2024.1.5,None,2024-12-04 11h19.30.471293 +0530,
,47 + 50 =,,,,,,,,,0,11,11,14,,,,,89.87675229998422,,,,,,,,,,,,,,,,,89.85751529998379,89.87675229998422,89.87675229998422,89.87675229998422,0.0052952000114601105,91.77150629999232,,[0.07037037037037037],[-0.2972222222222222],[1],[0],[0],[1.9083007000153884],['InstText'],,,,,,,,,,,,,,,,,,,,,05,001,2024-12-04_11h19.19.662,EmotionalValenceMemoryRecall,2024.1.5,None,2024-12-04 11h19.30.471293 +0530,
,41 + 23 =,,,,,,,,,0,12,12,9,,,,,91.79259339999408,,,,,,,,,,,,,,,,,91.77238690000377,91.79259339999408,91.79259339999408,91.79259339999408,0.006091799994464964,95.60202679998474,64,[0.07037037037037037],[-0.2972222222222222],[1],[0],[0],[3.8226687000133097],['InstText'],,,,,,,,,,,,,,,,,,,,,05,001,2024-12-04_11h19.19.662,EmotionalValenceMemoryRecall,2024.1.5,None,2024-12-04 11h19.30.471293 +0530,
,16 + 12 =,,,,,,,,,0,13,13,12,,,,,95.62712389999069,,,,,,,,,,,,,,,,,95.60327089999919,95.62712389999069,95.62712389999069,95.62712389999069,0.006846900010714307,99.58192519997829,28,[0.07037037037037037],[-0.2972222222222222],[1],[0],[0],[3.9705103000160307],['InstText'],,,,,,,,,,,,,,,,,,,,,05,001,2024-12-04_11h19.19.662,EmotionalValenceMemoryRecall,2024.1.5,None,2024-12-04 11h19.30.471293 +0530,
,25 + 28 =,,,,,,,,,0,14,14,5,,,,,99.60666560000391,,,,,,,,,,,,,,,,,99.58354849999887,99.60666560000391,99.60666560000391,99.60666560000391,0.006750300002750009,100.13024339999538,,[0.07037037037037037],[-0.2972222222222222],[1],[0],[0],[0.5393645000003744],['InstText'],,,,,,,,,,,,,,,,,,,,,05,001,2024-12-04_11h19.19.662,EmotionalValenceMemoryRecall,2024.1.5,None,2024-12-04 11h19.30.471293 +0530,
,,,,,,,,,,,,,,,,,,,,,,,,,,,,,,,,,,,,,,,,,,,,,,,,,100.13145479999366,100.14611010000226,100.14611010000226,102.56226529998821,space,2.3992415000102483,None,,,,,,,,,,,,,,05,001,2024-12-04_11h19.19.662,EmotionalValenceMemoryRecall,2024.1.5,None,2024-12-04 11h19.30.471293 +0530,
,,,,,,,,,,,,,,0,0,0,0,102.58214889999363,,,,,,,,,,,,,,,,,,,,,,,,,,,,,,,,,,,,,,102.56404299999122,102.58214889999363,102.58214889999363,0.00291129999095574,104.8765027000045,insult,[0.07037037037037037],[-0.2972222222222222],[1],[0],[0],[2.310177000006661],['Instr'],05,001,2024-12-04_11h19.19.662,EmotionalValenceMemoryRecall,2024.1.5,None,2024-12-04 11h19.30.471293 +0530,
,,,,,,,,,,,,,,1,0,1,0,104.89615849999245,,,,,,,,,,,,,,,,,,,,,,,,,,,,,,,,,,,,,,104.88020580000011,104.89615849999245,104.89615849999245,0.001592099986737594,107.04163589997916,lost,[0.07037037037037037],[-0.2972222222222222],[1],[0],[0],[2.1591638999816496],['Instr'],05,001,2024-12-04_11h19.19.662,EmotionalValenceMemoryRecall,2024.1.5,None,2024-12-04 11h19.30.471293 +0530,
,,,,,,,,,,,,,,2,0,2,0,107.05987679999089,,,,,,,,,,,,,,,,,,,,,,,,,,,,,,,,,,,,,,107.04363609998836,107.05987679999089,107.05987679999089,0.0014697000151500106,109.23952179998741,burial,[0.07037037037037037],[-0.2972222222222222],[1],[0],[0],[2.193554400000721],['Instr'],05,001,2024-12-04_11h19.19.662,EmotionalValenceMemoryRecall,2024.1.5,None,2024-12-04 11h19.30.471293 +0530,
,,,,,,,,,,,,,,3,0,3,0,109.25728019999224,,,,,,,,,,,,,,,,,,,,,,,,,,,,,,,,,,,,,,109.24159180000424,109.25728019999224,109.25728019999224,0.0015996000147424638,111.00477889998001,corpse,[0.07037037037037037],[-0.2972222222222222],[1],[0],[0],[1.7607991000113543],['Instr'],05,001,2024-12-04_11h19.19.662,EmotionalValenceMemoryRecall,2024.1.5,None,2024-12-04 11h19.30.471293 +0530,
,,,,,,,,,,,,,,4,0,4,0,111.02280579999206,,,,,,,,,,,,,,,,,,,,,,,,,,,,,,,,,,,,,,111.00691850000294,111.02280579999206,111.02280579999206,0.001655199972447008,112.47007189999567,rape,[0.07037037037037037],[-0.2972222222222222],[1],[0],[0],[1.4609437999897636],['Instr'],05,001,2024-12-04_11h19.19.662,EmotionalValenceMemoryRecall,2024.1.5,None,2024-12-04 11h19.30.471293 +0530,
,,,,,,,,,,,,,,5,0,5,0,112.48854269998264,,,,,,,,,,,,,,,,,,,,,,,,,,,,,,,,,,,,,,112.47221609999542,112.48854269998264,112.48854269998264,0.0015051999944262207,114.00185979998787,evil,[0.07037037037037037],[-0.2972222222222222],[1],[0],[0],[1.527389900002163],['Instr'],05,001,2024-12-04_11h19.19.662,EmotionalValenceMemoryRecall,2024.1.5,None,2024-12-04 11h19.30.471293 +0530,
,,,,,,,,,,,,,,6,0,6,0,114.02157189999707,,,,,,,,,,,,,,,,,,,,,,,,,,,,,,,,,,,,,,114.00380360000418,114.02157189999707,114.02157189999707,0.0014784999948460609,116.01642929998343,angry,[0.07037037037037037],[-0.2972222222222222],[1],[0],[0],[2.0103515000082552],['Instr'],05,001,2024-12-04_11h19.19.662,EmotionalValenceMemoryRecall,2024.1.5,None,2024-12-04 11h19.30.471293 +0530,
,,,,,,,,,,,,,,7,0,7,0,116.03469539998332,,,,,,,,,,,,,,,,,,,,,,,,,,,,,,,,,,,,,,116.01838130000397,116.03469539998332,116.03469539998332,0.0017130999767687172,117.44863329999498,fear,[0.07037037037037037],[-0.2972222222222222],[1],[0],[0],[1.4276342999946792],['Instr'],05,001,2024-12-04_11h19.19.662,EmotionalValenceMemoryRecall,2024.1.5,None,2024-12-04 11h19.30.471293 +0530,
,,,,,,,,,,,,,,8,0,8,0,117.4671027000004,,,,,,,,,,,,,,,,,,,,,,,,,,,,,,,,,,,,,,117.45077779999701,117.4671027000004,117.4671027000004,0.0019369999936316162,123.0434566999902,demon,[0.07037037037037037],[-0.2972222222222222],[1],[0],[0],[5.589849599986337],['Instr'],05,001,2024-12-04_11h19.19.662,EmotionalValenceMemoryRecall,2024.1.5,None,2024-12-04 11h19.30.471293 +0530,
,,,,,,,,,,,,,,9,0,9,0,123.06114419997903,,,,,,,,,,,,,,,,,,,,,,,,,,,,,,,,,,,,,,123.045629500004,123.06114419997903,123.06114419997903,0.0018334999913349748,124.57529639999848,evil,[0.07037037037037037],[-0.2972222222222222],[1],[0],[0],[1.5271696000127122],['Instr'],05,001,2024-12-04_11h19.19.662,EmotionalValenceMemoryRecall,2024.1.5,None,2024-12-04 11h19.30.471293 +0530,
,,,,,,,,,,,,,,10,0,10,0,124.59348909999244,,,,,,,,,,,,,,,,,,,,,,,,,,,,,,,,,,,,,,124.57769389997702,124.59348909999244,124.59348909999244,0.0015405999729409814,134.5806850999943,,[],[],[],[],[],[],[],05,001,2024-12-04_11h19.19.662,EmotionalValenceMemoryRecall,2024.1.5,None,2024-12-04 11h19.30.471293 +0530,
,,,,,,,,,,,,,,11,0,11,0,134.59705310000572,,,,,,,,,,,,,,,,,,,,,,,,,,,,,,,,,,,,,,134.5825600999815,134.59705310000572,134.59705310000572,0.0063408999994862825,141.55965250000008,crime,[0.07037037037037037],[-0.2972222222222222],[1],[0],[0],[6.974503200006438],['Instr'],05,001,2024-12-04_11h19.19.662,EmotionalValenceMemoryRecall,2024.1.5,None,2024-12-04 11h19.30.471293 +0530,
,,,,,,,,,,,,,,12,0,12,0,141.5783117999963,,,,,,,,,,,,,,,,,,,,,,,,,,,,,,,,,,,,,,141.5617149999889,141.5783117999963,141.5783117999963,0.0014927999873179942,144.522954199987,theif,[0.07037037037037037],[-0.2972222222222222],[1],[0],[0],[2.959086599992588],['Instr'],05,001,2024-12-04_11h19.19.662,EmotionalValenceMemoryRecall,2024.1.5,None,2024-12-04 11h19.30.471293 +0530,
,,,,,,,,,,,,,,13,0,13,0,144.54046180000296,,,,,,,,,,,,,,,,,,,,,,,,,,,,,,,,,,,,,,144.52507069997955,144.54046180000296,144.54046180000296,0.0015338000084739178,147.420812700002,knife,[0.07037037037037037],[-0.2972222222222222],[1],[0],[0],[2.8934279000095557],['Instr'],05,001,2024-12-04_11h19.19.662,EmotionalValenceMemoryRecall,2024.1.5,None,2024-12-04 11h19.30.471293 +0530,
,,,,,,,,,,,,,,14,0,14,0,147.43956189998426,,,,,,,,,,,,,,,,,,,,,,,,,,,,,,,,,,,,,,147.42275410000002,147.43956189998426,147.43956189998426,0.0015322999970521778,151.56674089998705,lie,[0.07037037037037037],[-0.2972222222222222],[1],[0],[0],[4.141502100013895],['Instr'],05,001,2024-12-04_11h19.19.662,EmotionalValenceMemoryRecall,2024.1.5,None,2024-12-04 11h19.30.471293 +0530,
,,,,,,,,,,,,,,15,0,15,0,151.58580979998806,,,,,,,,,,,,,,,,,,,,,,,,,,,,,,,,,,,,,,151.56870020000497,151.58580979998806,151.58580979998806,0.0016844000201672316,154.86337710000225,betrayal,[0.07037037037037037],[-0.2972222222222222],[1],[0],[0],[3.292190499982098],['Instr'],05,001,2024-12-04_11h19.19.662,EmotionalValenceMemoryRecall,2024.1.5,None,2024-12-04 11h19.30.471293 +0530,
,,,,,,,,,,,,,,16,0,16,0,154.88030590000562,,,,,,,,,,,,,,,,,,,,,,,,,,,,,,,,,,,,,,154.8654222000041,154.88030590000562,154.88030590000562,0.0015906000044196844,157.31100339998375,guilt,[0.07037037037037037],[-0.2972222222222222],[1],[0],[0],[2.443124599987641],['Instr'],05,001,2024-12-04_11h19.19.662,EmotionalValenceMemoryRecall,2024.1.5,None,2024-12-04 11h19.30.471293 +0530,
,,,,,,,,,,,,,,17,0,17,0,157.3285810999805,,,,,,,,,,,,,,,,,,,,,,,,,,,,,,,,,,,,,,157.3129718999844,157.3285810999805,157.3285810999805,0.001707300019916147,159.42559869997785,grief,[0.07037037037037037],[-0.2972222222222222],[1],[0],[0],[2.110108399996534],['Instr'],05,001,2024-12-04_11h19.19.662,EmotionalValenceMemoryRecall,2024.1.5,None,2024-12-04 11h19.30.471293 +0530,
,,,,,,,,,,,,,,18,0,18,0,159.44441579998238,,,,,,,,,,,,,,,,,,,,,,,,,,,,,,,,,,,,,,159.42762629999197,159.44441579998238,159.44441579998238,0.0015202999929897487,169.43173909999314,c,[],[],[],[],[],[],[],05,001,2024-12-04_11h19.19.662,EmotionalValenceMemoryRecall,2024.1.5,None,2024-12-04 11h19.30.471293 +0530,
,,,,,,,,,,,,,,19,0,19,0,169.45074689999456,,,,,,,,,,,,,,,,,,,,,,,,,,,,,,,,,,,,,,169.43368990000454,169.45074689999456,169.45074689999456,0.0075428000127431005,172.84719369999948,crisis,[0.07037037037037037],[-0.2972222222222222],[1],[0],[0],[3.410903700016206],['Instr'],05,001,2024-12-04_11h19.19.662,EmotionalValenceMemoryRecall,2024.1.5,None,2024-12-04 11h19.30.471293 +0530,
,,,,,,,,,,,,,,20,0,20,0,172.86482369998703,,,,,,,,,,,,,,,,,,,,,,,,,,,,,,,,,,,,,,172.8492161000031,172.86482369998703,172.86482369998703,0.001451499992981553,174.6452566999942,debt,[0.07037037037037037],[-0.2972222222222222],[1],[0],[0],[1.7937329999986105],['Instr'],05,001,2024-12-04_11h19.19.662,EmotionalValenceMemoryRecall,2024.1.5,None,2024-12-04 11h19.30.471293 +0530,
,,,,,,,,,,,,,,21,0,21,0,174.6634616999945,,,,,,,,,,,,,,,,,,,,,,,,,,,,,,,,,,,,,,174.64737339998828,174.6634616999945,174.6634616999945,0.0014393999881576747,182.97097289998783,rage,[0.07037037037037037],[-0.2972222222222222],[1],[0],[0],[8.321130199998152],['Instr'],05,001,2024-12-04_11h19.19.662,EmotionalValenceMemoryRecall,2024.1.5,None,2024-12-04 11h19.30.471293 +0530,
,,,,,,,,,,,,,,22,0,22,0,182.9911794999789,,,,,,,,,,,,,,,,,,,,,,,,,,,,,,,,,,,,,,182.97450609999942,182.9911794999789,182.9911794999789,0.0020029000006616116,192.97597400000086,,[],[],[],[],[],[],[],05,001,2024-12-04_11h19.19.662,EmotionalValenceMemoryRecall,2024.1.5,None,2024-12-04 11h19.30.471293 +0530,
,,,,,,,,,,,,,,23,0,23,0,192.99195209998288,,,,,,,,,,,,,,,,,,,,,,,,,,,,,,,,,,,,,,192.97730119997868,192.99195209998288,192.99195209998288,0.004218499991111457,196.1751207000052,ugly,[0.07037037037037037],[-0.2972222222222222],[1],[0],[0],[3.1957146000058856],['Instr'],05,001,2024-12-04_11h19.19.662,EmotionalValenceMemoryRecall,2024.1.5,None,2024-12-04 11h19.30.471293 +0530,
,,,,,,,,,,,,,,24,0,24,0,196.19324769999366,,,,,,,,,,,,,,,,,,,,,,,,,,,,,,,,,,,,,,196.17722409998532,196.19324769999366,196.19324769999366,0.0017274999991059303,202.55241529998602,,[0.07037037037037037],[-0.2972222222222222],[1],[0],[0],[6.372878199996194],['Instr'],05,001,2024-12-04_11h19.19.662,EmotionalValenceMemoryRecall,2024.1.5,None,2024-12-04 11h19.30.471293 +0530,
