pos,corr_resp,trials.thisRepN,trials.thisTrialN,trials.thisN,trials.thisIndex,trials_2.thisRepN,trials_2.thisTrialN,trials_2.thisN,trials_2.thisIndex,thisRow.t,notes,trial.started,fixation.started,line1.started,line2.started,line3.started,line4.started,fixation.stopped,triangle.started,key_resp.started,trial.stopped,key_resp.keys,key_resp.corr,key_resp.rt,key_resp.duration,participant,session,date,expName,psychopyVersion,frameRate,expStart,
-50,x,0,0,0,0,,,,,0.016706999973393977,,0.010125800035893917,0.016706999973393977,1.0003990000113845,1.0003990000113845,1.0003990000113845,1.0003990000113845,1.0172990000573918,2.0152387999696657,2.0152387999696657,3.0166982000228018,x,1,0.8842959000030532,None,108142,001,2024-10-12_10h55.39.373,MotorSequenceLearning,2024.1.5,None,2024-10-12 10h55.45.871970 +0530,
150,v,0,1,1,1,,,,,3.0240498000057414,,3.0201305000809953,3.0240498000057414,4.031167600071058,4.031167600071058,4.031167600071058,4.031167600071058,4.031167600071058,5.029863100033253,5.029863100033253,5.84759560006205,v,1,0.8049271999625489,None,108142,001,2024-10-12_10h55.39.373,MotorSequenceLearning,2024.1.5,None,2024-10-12 10h55.45.871970 +0530,
50,c,0,2,2,2,,,,,5.86260840005707,,5.849485800019465,5.86260840005707,6.8620175999822095,6.8620175999822095,6.8620175999822095,6.8620175999822095,6.878647200064734,7.860658499994315,7.860658499994315,8.944944399991073,c,1,1.0773832000559196,None,108142,001,2024-10-12_10h55.39.373,MotorSequenceLearning,2024.1.5,None,2024-10-12 10h55.45.871970 +0530,
-150,z,0,3,3,3,,,,,8.959495700080879,,8.947052199975587,8.959495700080879,9.959421399980783,9.959421399980783,9.959421399980783,9.959421399980783,9.959421399980783,10.957569100079127,10.957569100079127,11.35945960006211,z,1,0.3855097000487149,None,108142,001,2024-10-12_10h55.39.373,MotorSequenceLearning,2024.1.5,None,2024-10-12 10h55.45.871970 +0530,
-50,x,1,0,4,0,,,,,11.373839400010183,,11.362221500021406,11.373839400010183,12.373084300081246,12.373084300081246,12.373084300081246,12.373084300081246,12.373084300081246,13.372023400035687,13.372023400035687,13.890413000015542,x,1,0.5089235999621451,None,108142,001,2024-10-12_10h55.39.373,MotorSequenceLearning,2024.1.5,None,2024-10-12 10h55.45.871970 +0530,
150,v,1,1,5,1,,,,,13.90484660002403,,13.89254550007172,13.90484660002403,14.903842100058682,14.903842100058682,14.903842100058682,14.903842100058682,14.903842100058682,15.902950900024734,15.902950900024734,16.238664200063795,v,1,0.3268512999638915,None,108142,001,2024-10-12_10h55.39.373,MotorSequenceLearning,2024.1.5,None,2024-10-12 10h55.45.871970 +0530,
50,c,1,2,6,2,,,,,16.252729900064878,,16.24074290005956,16.252729900064878,17.251857300056145,17.251857300056145,17.251857300056145,17.251857300056145,17.251857300056145,18.251131299999543,18.251131299999543,18.669368500006385,c,1,0.41177190002053976,None,108142,001,2024-10-12_10h55.39.373,MotorSequenceLearning,2024.1.5,None,2024-10-12 10h55.45.871970 +0530,
-150,z,1,3,7,3,,,,,18.683989700046368,,18.67176759999711,18.683989700046368,19.683644899982028,19.683644899982028,19.683644899982028,19.683644899982028,19.683644899982028,20.681976600084454,20.681976600084454,21.000064100022428,z,1,0.3112132999813184,None,108142,001,2024-10-12_10h55.39.373,MotorSequenceLearning,2024.1.5,None,2024-10-12 10h55.45.871970 +0530,
-50,x,2,0,8,0,,,,,21.014866500045173,,21.002151500084437,21.014866500045173,22.01437920005992,22.01437920005992,22.01437920005992,22.01437920005992,22.01437920005992,23.013064800063148,23.013064800063148,23.464165700017475,x,1,0.4494292000308633,None,108142,001,2024-10-12_10h55.39.373,MotorSequenceLearning,2024.1.5,None,2024-10-12 10h55.45.871970 +0530,
150,v,2,1,9,1,,,,,23.47882279998157,,23.465418400010094,23.47882279998157,24.478719500009902,24.478719500009902,24.478719500009902,24.478719500009902,24.478719500009902,25.47733150003478,25.47733150003478,25.762198099982925,v,1,0.26797359995543957,None,108142,001,2024-10-12_10h55.39.373,MotorSequenceLearning,2024.1.5,None,2024-10-12 10h55.45.871970 +0530,
50,c,2,2,10,2,,,,,25.77710599999409,,25.764430499984883,25.77710599999409,26.776755500002764,26.776755500002764,26.776755500002764,26.776755500002764,26.776755500002764,27.775278600049205,27.775278600049205,28.093207900063135,c,1,0.3003877999726683,None,108142,001,2024-10-12_10h55.39.373,MotorSequenceLearning,2024.1.5,None,2024-10-12 10h55.45.871970 +0530,
-150,z,2,3,11,3,,,,,28.108271199977025,,28.09532580000814,28.108271199977025,29.108264700043947,29.108264700043947,29.108264700043947,29.108264700043947,29.108264700043947,30.105621400056407,30.105621400056407,30.422450500074774,z,1,0.3016558999661356,None,108142,001,2024-10-12_10h55.39.373,MotorSequenceLearning,2024.1.5,None,2024-10-12 10h55.45.871970 +0530,
-50,x,3,0,12,0,,,,,30.43827769998461,,30.42312839999795,30.43827769998461,31.422075400012545,31.422075400012545,31.422075400012545,31.422075400012545,31.438713400042616,32.43772250006441,32.43772250006441,32.90594450000208,x,1,0.463910200051032,None,108142,001,2024-10-12_10h55.39.373,MotorSequenceLearning,2024.1.5,None,2024-10-12 10h55.45.871970 +0530,
150,v,3,1,13,1,,,,,32.92034249997232,,32.90788840001915,32.92034249997232,33.91965820000041,33.91965820000041,33.91965820000041,33.91965820000041,33.91965820000041,34.91733089997433,34.91733089997433,35.185381500050426,v,1,0.2595781000563875,None,108142,001,2024-10-12_10h55.39.373,MotorSequenceLearning,2024.1.5,None,2024-10-12 10h55.45.871970 +0530,
50,c,3,2,14,2,,,,,35.200337600079365,,35.18644990003668,35.200337600079365,36.19960950000677,36.19960950000677,36.19960950000677,36.19960950000677,36.19960950000677,37.20015659998171,37.20015659998171,37.55208539997693,c,1,0.3472473999718204,None,108142,001,2024-10-12_10h55.39.373,MotorSequenceLearning,2024.1.5,None,2024-10-12 10h55.45.871970 +0530,
-150,z,3,3,15,3,,,,,37.56615089997649,,37.554156900034286,37.56615089997649,38.56463929999154,38.56463929999154,38.56463929999154,38.56463929999154,38.581445200019516,39.56434939999599,39.56434939999599,39.882814900018275,z,1,0.3083579000085592,None,108142,001,2024-10-12_10h55.39.373,MotorSequenceLearning,2024.1.5,None,2024-10-12 10h55.45.871970 +0530,
-50,x,4,0,16,0,,,,,39.897021700046025,,39.88484549999703,39.897021700046025,40.89661759999581,40.89661759999581,40.89661759999581,40.89661759999581,40.89661759999581,41.89528779999819,41.89528779999819,42.33068270003423,x,1,0.43062120000831783,None,108142,001,2024-10-12_10h55.39.373,MotorSequenceLearning,2024.1.5,None,2024-10-12 10h55.45.871970 +0530,
150,v,4,1,17,1,,,,,42.34459310001694,,42.333336299983785,42.34459310001694,43.344226100016385,43.344226100016385,43.344226100016385,43.344226100016385,43.344226100016385,44.34312970004976,44.34312970004976,44.64464409998618,v,1,0.29423740005586296,None,108142,001,2024-10-12_10h55.39.373,MotorSequenceLearning,2024.1.5,None,2024-10-12 10h55.45.871970 +0530,
50,c,4,2,18,2,,,,,44.65940420003608,,44.646398800075985,44.65940420003608,45.658695799997076,45.658695799997076,45.658695799997076,45.658695799997076,45.658695799997076,46.65803920000326,46.65803920000326,46.975589900044724,c,1,0.3009637000504881,None,108142,001,2024-10-12_10h55.39.373,MotorSequenceLearning,2024.1.5,None,2024-10-12 10h55.45.871970 +0530,
-150,z,4,3,19,3,,,,,46.99074210005347,,46.97755309997592,46.99074210005347,47.99037140002474,47.99037140002474,47.99037140002474,47.99037140002474,47.99037140002474,48.98850139998831,48.98850139998831,49.34013430005871,z,1,0.33903140004258603,None,108142,001,2024-10-12_10h55.39.373,MotorSequenceLearning,2024.1.5,None,2024-10-12 10h55.45.871970 +0530,
-50,x,5,0,20,0,,,,,49.35509580001235,,49.342212500050664,49.35509580001235,50.35448700003326,50.35448700003326,50.35448700003326,50.35448700003326,50.35448700003326,51.352791300043464,51.352791300043464,51.719894299982116,x,1,0.3551539999898523,None,108142,001,2024-10-12_10h55.39.373,MotorSequenceLearning,2024.1.5,None,2024-10-12 10h55.45.871970 +0530,
150,v,5,1,21,1,,,,,51.735534899984486,,51.7210946000414,51.735534899984486,52.73478190007154,52.73478190007154,52.73478190007154,52.73478190007154,52.73478190007154,53.733728300081566,53.733728300081566,54.03523729997687,v,1,0.29654230002779514,None,108142,001,2024-10-12_10h55.39.373,MotorSequenceLearning,2024.1.5,None,2024-10-12 10h55.45.871970 +0530,
50,c,5,2,22,2,,,,,54.05000300006941,,54.036447199992836,54.05000300006941,55.04997699998785,55.04997699998785,55.04997699998785,55.04997699998785,55.04997699998785,56.048687000060454,56.048687000060454,56.30077229999006,c,1,0.24061360000632703,None,108142,001,2024-10-12_10h55.39.373,MotorSequenceLearning,2024.1.5,None,2024-10-12 10h55.45.871970 +0530,
-150,z,5,3,23,3,,,,,56.31530030001886,,56.30278020002879,56.31530030001886,57.314894600072876,57.314894600072876,57.314894600072876,57.314894600072876,57.314894600072876,58.31379729998298,58.31379729998298,59.21506750001572,z,1,0.896424200036563,None,108142,001,2024-10-12_10h55.39.373,MotorSequenceLearning,2024.1.5,None,2024-10-12 10h55.45.871970 +0530,
-50,x,6,0,24,0,,,,,59.22925440000836,,59.21695530007128,59.22925440000836,60.228748099994846,60.228748099994846,60.228748099994846,60.228748099994846,60.228748099994846,61.22747859999072,61.22747859999072,61.52948670007754,x,1,0.2992709999671206,None,108142,001,2024-10-12_10h55.39.373,MotorSequenceLearning,2024.1.5,None,2024-10-12 10h55.45.871970 +0530,
150,v,6,1,25,1,,,,,61.543638100032695,,61.53151620004792,61.543638100032695,62.543121200054884,62.543121200054884,62.543121200054884,62.543121200054884,62.543121200054884,63.54200050001964,63.54200050001964,63.810388699988835,v,1,0.2560117000248283,None,108142,001,2024-10-12_10h55.39.373,MotorSequenceLearning,2024.1.5,None,2024-10-12 10h55.45.871970 +0530,
50,c,6,2,26,2,,,,,63.82501220004633,,63.81282740004826,63.82501220004633,64.82491590001155,64.82491590001155,64.82491590001155,64.82491590001155,64.82491590001155,65.82265119999647,65.82265119999647,66.07435090001673,c,1,0.2483982000267133,None,108142,001,2024-10-12_10h55.39.373,MotorSequenceLearning,2024.1.5,None,2024-10-12 10h55.45.871970 +0530,
-150,z,6,3,27,3,,,,,66.08906140003819,,66.07552990003023,66.08906140003819,67.08807850000449,67.08807850000449,67.08807850000449,67.08807850000449,67.08807850000449,68.08795640000608,68.08795640000608,68.23915290005971,z,1,0.13878749997820705,None,108142,001,2024-10-12_10h55.39.373,MotorSequenceLearning,2024.1.5,None,2024-10-12 10h55.45.871970 +0530,
-50,x,7,0,28,0,,,,,68.25406659999862,,68.24122359999456,68.25406659999862,69.25353920005728,69.25353920005728,69.25353920005728,69.25353920005728,69.25353920005728,70.25221539998893,70.25221539998893,70.58707040001173,x,1,0.3246463000541553,None,108142,001,2024-10-12_10h55.39.373,MotorSequenceLearning,2024.1.5,None,2024-10-12 10h55.45.871970 +0530,
150,v,7,1,29,1,,,,,70.60201969998889,,70.58979250001721,70.60201969998889,71.60118019999936,71.60118019999936,71.60118019999936,71.60118019999936,71.61782200005837,72.59995070006698,72.59995070006698,72.8687880000798,v,1,0.26250620000064373,None,108142,001,2024-10-12_10h55.39.373,MotorSequenceLearning,2024.1.5,None,2024-10-12 10h55.45.871970 +0530,
50,c,7,2,30,2,,,,,72.88314669998363,,72.87090510001872,72.88314669998363,73.88297080004122,73.88297080004122,73.88297080004122,73.88297080004122,73.88297080004122,74.88081170001533,74.88081170001533,75.14788409997709,c,1,0.2644659999059513,None,108142,001,2024-10-12_10h55.39.373,MotorSequenceLearning,2024.1.5,None,2024-10-12 10h55.45.871970 +0530,
-150,z,7,3,31,3,,,,,75.16328280000016,,75.14896939997561,75.16328280000016,76.16234130004887,76.16234130004887,76.16234130004887,76.16234130004887,76.16234130004887,77.16131130000576,77.16131130000576,77.34537310001906,z,1,0.1761143000330776,None,108142,001,2024-10-12_10h55.39.373,MotorSequenceLearning,2024.1.5,None,2024-10-12 10h55.45.871970 +0530,
-50,x,8,0,32,0,,,,,77.36159400001634,,77.34629060002044,77.36159400001634,78.34531260002404,78.34531260002404,78.34531260002404,78.34531260002404,78.36185260000639,79.3598005999811,79.3598005999811,79.60990550008137,x,1,0.23764590010978281,None,108142,001,2024-10-12_10h55.39.373,MotorSequenceLearning,2024.1.5,None,2024-10-12 10h55.45.871970 +0530,
150,v,8,1,33,1,,,,,79.62537460005842,,79.61080710007809,79.62537460005842,80.62645320000593,80.62645320000593,80.62645320000593,80.62645320000593,80.62645320000593,81.62519170006271,81.62519170006271,81.94305860006716,v,1,0.3023031000047922,None,108142,001,2024-10-12_10h55.39.373,MotorSequenceLearning,2024.1.5,None,2024-10-12 10h55.45.871970 +0530,
50,c,8,2,34,2,,,,,81.9581509999698,,81.94514389999676,81.9581509999698,82.9575901000062,82.9575901000062,82.9575901000062,82.9575901000062,82.9575901000062,83.95624560001306,83.95624560001306,84.25791809998918,c,1,0.2924961999524385,None,108142,001,2024-10-12_10h55.39.373,MotorSequenceLearning,2024.1.5,None,2024-10-12 10h55.45.871970 +0530,
-150,z,8,3,35,3,,,,,84.27244299999438,,84.26003910007421,84.27244299999438,85.27220150001813,85.27220150001813,85.27220150001813,85.27220150001813,85.27220150001813,86.27049090003129,86.27049090003129,86.3894685000414,z,1,0.11568010004702955,None,108142,001,2024-10-12_10h55.39.373,MotorSequenceLearning,2024.1.5,None,2024-10-12 10h55.45.871970 +0530,
-50,x,9,0,36,0,,,,,86.40386730001774,,86.39149339997675,86.40386730001774,87.40342900005635,87.40342900005635,87.40342900005635,87.40342900005635,87.40342900005635,88.40203480003402,88.40203480003402,88.687060700031,x,1,0.27883149997796863,None,108142,001,2024-10-12_10h55.39.373,MotorSequenceLearning,2024.1.5,None,2024-10-12 10h55.45.871970 +0530,
150,v,9,1,37,1,,,,,88.701727900072,,88.6893908000784,88.701727900072,89.70106690004468,89.70106690004468,89.70106690004468,89.70106690004468,89.70106690004468,90.69983699999284,90.69983699999284,90.95163310004864,v,1,0.23906119994353503,None,108142,001,2024-10-12_10h55.39.373,MotorSequenceLearning,2024.1.5,None,2024-10-12 10h55.45.871970 +0530,
50,c,9,2,38,2,,,,,90.96658770006616,,90.95373670000117,90.96658770006616,91.96428990003187,91.96428990003187,91.96428990003187,91.96428990003187,91.98091809998732,92.96418940008152,92.96418940008152,93.19942950003315,c,1,None,None,108142,001,2024-10-12_10h55.39.373,MotorSequenceLearning,2024.1.5,None,2024-10-12 10h55.45.871970 +0530,
-150,z,9,3,39,3,,,,,93.2142619000515,,93.20149150001816,93.2142619000515,94.21360780007672,94.21360780007672,94.21360780007672,94.21360780007672,94.21360780007672,95.21288680005819,95.21288680005819,95.28052530006971,z,1,0.05111070000566542,None,108142,001,2024-10-12_10h55.39.373,MotorSequenceLearning,2024.1.5,None,2024-10-12 10h55.45.871970 +0530,
-50,x,10,0,40,0,,,,,95.29557640000712,,95.28233710001223,95.29557640000712,96.29545540001709,96.29545540001709,96.29545540001709,96.29545540001709,96.29545540001709,97.29418720002286,97.29418720002286,98.06150130007882,x,1,0.7521802999544889,None,108142,001,2024-10-12_10h55.39.373,MotorSequenceLearning,2024.1.5,None,2024-10-12 10h55.45.871970 +0530,
150,v,10,1,41,1,,,,,98.07622599997558,,98.06323149998207,98.07622599997558,99.07578319997992,99.07578319997992,99.07578319997992,99.07578319997992,99.07578319997992,100.07439159997739,100.07439159997739,100.22616030008066,v,1,0.14825039997231215,None,108142,001,2024-10-12_10h55.39.373,MotorSequenceLearning,2024.1.5,None,2024-10-12 10h55.45.871970 +0530,
50,c,10,2,42,2,,,,,100.24114769999869,,100.22787339997012,100.24114769999869,101.24015630001668,101.24015630001668,101.24015630001668,101.24015630001668,101.24015630001668,102.23886430007406,102.23886430007406,102.92311680002604,c,1,0.6791254000272602,None,108142,001,2024-10-12_10h55.39.373,MotorSequenceLearning,2024.1.5,None,2024-10-12 10h55.45.871970 +0530,
-150,z,10,3,43,3,,,,,102.93737629998941,,102.92428729997482,102.93737629998941,103.93782710004598,103.93782710004598,103.93782710004598,103.93782710004598,103.93782710004598,104.9367774000857,104.9367774000857,105.2217696000589,z,1,0.2762122000567615,None,108142,001,2024-10-12_10h55.39.373,MotorSequenceLearning,2024.1.5,None,2024-10-12 10h55.45.871970 +0530,
-50,x,11,0,44,0,,,,,105.23632050002925,,105.22429849999025,105.23632050002925,106.23520039999858,106.23520039999858,106.23520039999858,106.23520039999858,106.23520039999858,107.23449459997937,107.23449459997937,107.53626429999713,x,1,0.29600450000725687,None,108142,001,2024-10-12_10h55.39.373,MotorSequenceLearning,2024.1.5,None,2024-10-12 10h55.45.871970 +0530,
150,v,11,1,45,1,,,,,107.55025390000083,,107.53801190003287,107.55025390000083,108.5500602000393,108.5500602000393,108.5500602000393,108.5500602000393,108.5500602000393,109.54787390003912,109.54787390003912,109.8326703000348,v,1,0.27178169996477664,None,108142,001,2024-10-12_10h55.39.373,MotorSequenceLearning,2024.1.5,None,2024-10-12 10h55.45.871970 +0530,
50,c,11,2,46,2,,,,,109.84766770002898,,109.83386100002099,109.84766770002898,110.84816769999452,110.84816769999452,110.84816769999452,110.84816769999452,110.84816769999452,111.84675000002608,111.84675000002608,111.93142350006383,c,1,0.06987579993437976,None,108142,001,2024-10-12_10h55.39.373,MotorSequenceLearning,2024.1.5,None,2024-10-12 10h55.45.871970 +0530,
-150,z,11,3,47,3,,,,,111.94657450006343,,111.93324050004594,111.94657450006343,112.94578619999811,112.94578619999811,112.94578619999811,112.94578619999811,112.94578619999811,113.94480779999867,113.94480779999867,114.17958980007097,z,1,0.22278549999464303,None,108142,001,2024-10-12_10h55.39.373,MotorSequenceLearning,2024.1.5,None,2024-10-12 10h55.45.871970 +0530,
-50,x,12,0,48,0,,,,,114.196033300017,,114.18161640001927,114.196033300017,115.19385919999331,115.19385919999331,115.19385919999331,115.19385919999331,115.2107714000158,116.19266489997972,116.19266489997972,116.27781600004528,x,1,0.06993710005190223,None,108142,001,2024-10-12_10h55.39.373,MotorSequenceLearning,2024.1.5,None,2024-10-12 10h55.45.871970 +0530,
150,v,12,1,49,1,,,,,116.29250139999203,,116.27991749998182,116.29250139999203,117.2919874000363,117.2919874000363,117.2919874000363,117.2919874000363,117.2919874000363,118.29058849997818,118.29058849997818,118.39202530006878,v,1,0.08842040004674345,None,108142,001,2024-10-12_10h55.39.373,MotorSequenceLearning,2024.1.5,None,2024-10-12 10h55.45.871970 +0530,
50,c,12,2,50,2,,,,,118.40730369999073,,118.3940886000637,118.40730369999073,119.4064446000848,119.4064446000848,119.4064446000848,119.4064446000848,119.4064446000848,120.4054578000214,120.4054578000214,120.45750740007497,c,1,0.04575240006670356,None,108142,001,2024-10-12_10h55.39.373,MotorSequenceLearning,2024.1.5,None,2024-10-12 10h55.45.871970 +0530,
-150,z,12,3,51,3,,,,,120.4720480000833,,120.459466899978,120.4720480000833,121.47131320007611,121.47131320007611,121.47131320007611,121.47131320007611,121.47131320007611,122.47062040003948,122.47062040003948,122.60487530007958,z,1,0.12766610004473478,None,108142,001,2024-10-12_10h55.39.373,MotorSequenceLearning,2024.1.5,None,2024-10-12 10h55.45.871970 +0530,
-50,x,13,0,52,0,,,,,122.62021309998818,,122.60688910004683,122.62021309998818,123.61965790006798,123.61965790006798,123.61965790006798,123.61965790006798,123.61965790006798,124.61891339998692,124.61891339998692,124.83688229997642,x,1,0.21500309999100864,None,108142,001,2024-10-12_10h55.39.373,MotorSequenceLearning,2024.1.5,None,2024-10-12 10h55.45.871970 +0530,
150,v,13,1,53,1,,,,,124.85114320006687,,124.83896800002549,124.85114320006687,125.85080979997292,125.85080979997292,125.85080979997292,125.85080979997292,125.85080979997292,126.84937299997546,126.84937299997546,127.15030520001892,v,1,0.29582090000621974,None,108142,001,2024-10-12_10h55.39.373,MotorSequenceLearning,2024.1.5,None,2024-10-12 10h55.45.871970 +0530,
50,c,13,2,54,2,,,,,127.16521530004684,,127.15181090007536,127.16521530004684,128.165318400017,128.165318400017,128.165318400017,128.165318400017,128.165318400017,129.16420540004037,129.16420540004037,129.38231939997058,c,1,0.21035059995483607,None,108142,001,2024-10-12_10h55.39.373,MotorSequenceLearning,2024.1.5,None,2024-10-12 10h55.45.871970 +0530,
-150,z,13,3,55,3,,,,,129.39688170002773,,129.38412230007816,129.39688170002773,130.3965854999842,130.3965854999842,130.3965854999842,130.3965854999842,130.3965854999842,131.39514120004606,131.39514120004606,131.71426560007967,z,1,0.31704740005079657,None,108142,001,2024-10-12_10h55.39.373,MotorSequenceLearning,2024.1.5,None,2024-10-12 10h55.45.871970 +0530,
-50,x,14,0,56,0,,,,,131.72806039999705,,131.71634649997577,131.72806039999705,132.7276594999712,132.7276594999712,132.7276594999712,132.7276594999712,132.7276594999712,133.7266911000479,133.7266911000479,133.86135720007587,x,1,0.12734699994325638,None,108142,001,2024-10-12_10h55.39.373,MotorSequenceLearning,2024.1.5,None,2024-10-12 10h55.45.871970 +0530,
150,v,14,1,57,1,,,,,133.8760379999876,,133.86340240004938,133.8760379999876,134.87542300007772,134.87542300007772,134.87542300007772,134.87542300007772,134.87542300007772,135.87434480001684,135.87434480001684,135.9270128000062,v,1,0.04559190000873059,None,108142,001,2024-10-12_10h55.39.373,MotorSequenceLearning,2024.1.5,None,2024-10-12 10h55.45.871970 +0530,
50,c,14,2,58,2,,,,,135.94099040003493,,135.93006689997856,135.94099040003493,136.94036860007327,136.94036860007327,136.94036860007327,136.94036860007327,136.94036860007327,137.9391613000771,137.9391613000771,138.02437210001517,c,1,0.07606460002716631,None,108142,001,2024-10-12_10h55.39.373,MotorSequenceLearning,2024.1.5,None,2024-10-12 10h55.45.871970 +0530,
-150,z,14,3,59,3,,,,,138.0385903000133,,138.02616330003366,138.0385903000133,139.03817090007942,139.03817090007942,139.03817090007942,139.03817090007942,139.03817090007942,140.03718670003582,140.03718670003582,140.23884040000848,z,1,0.19230839994270355,None,108142,001,2024-10-12_10h55.39.373,MotorSequenceLearning,2024.1.5,None,2024-10-12 10h55.45.871970 +0530,
-50,x,15,0,60,0,,,,,140.25393830006942,,140.24087820004206,140.25393830006942,141.25280710007064,141.25280710007064,141.25280710007064,141.25280710007064,141.25280710007064,142.25174229999539,142.25174229999539,142.55322760005947,x,1,0.2966302999993786,None,108142,001,2024-10-12_10h55.39.373,MotorSequenceLearning,2024.1.5,None,2024-10-12 10h55.45.871970 +0530,
150,v,15,1,61,1,,,,,142.56776290002745,,142.55503980000503,142.56776290002745,143.56755789997987,143.56755789997987,143.56755789997987,143.56755789997987,143.56755789997987,144.5666482000379,144.5666482000379,144.75147380004637,v,1,0.18268999992869794,None,108142,001,2024-10-12_10h55.39.373,MotorSequenceLearning,2024.1.5,None,2024-10-12 10h55.45.871970 +0530,
50,c,15,2,62,2,,,,,144.76603310008068,,144.7533942000009,144.76603310008068,145.7653583000647,145.7653583000647,145.7653583000647,145.7653583000647,145.7653583000647,146.76414490002207,146.76414490002207,146.99966069997754,c,1,0.23040169989690185,None,108142,001,2024-10-12_10h55.39.373,MotorSequenceLearning,2024.1.5,None,2024-10-12 10h55.45.871970 +0530,
-150,z,15,3,63,3,,,,,147.0140610000817,,147.00158609997015,147.0140610000817,148.01330130000133,148.01330130000133,148.01330130000133,148.01330130000133,148.01330130000133,149.01192119996995,149.01192119996995,149.13081600004807,z,1,0.1018432000419125,None,108142,001,2024-10-12_10h55.39.373,MotorSequenceLearning,2024.1.5,None,2024-10-12 10h55.45.871970 +0530,
-50,x,16,0,64,0,,,,,149.14553259999957,,149.13279740000144,149.14553259999957,150.14470940001775,150.14470940001775,150.14470940001775,150.14470940001775,150.14470940001775,151.14345800003503,151.14345800003503,151.36178699997254,x,1,0.20802939997520298,None,108142,001,2024-10-12_10h55.39.373,MotorSequenceLearning,2024.1.5,None,2024-10-12 10h55.45.871970 +0530,
150,v,16,1,65,1,,,,,151.37654570001177,,151.36382630001754,151.37654570001177,152.37624820007477,152.37624820007477,152.37624820007477,152.37624820007477,152.37624820007477,153.3751320000738,153.3751320000738,153.61031700007152,v,1,0.23129470006097108,None,108142,001,2024-10-12_10h55.39.373,MotorSequenceLearning,2024.1.5,None,2024-10-12 10h55.45.871970 +0530,
50,c,16,2,66,2,,,,,153.62413650006056,,153.61273829999845,153.62413650006056,154.62333129998296,154.62333129998296,154.62333129998296,154.62333129998296,154.62333129998296,155.6226063000504,155.6226063000504,155.92487720004283,c,1,0.29989210003986955,None,108142,001,2024-10-12_10h55.39.373,MotorSequenceLearning,2024.1.5,None,2024-10-12 10h55.45.871970 +0530,
-150,z,16,3,67,3,,,,,155.93875420000404,,155.9269317999715,155.93875420000404,156.93767790007405,156.93767790007405,156.93767790007405,156.93767790007405,156.95372740004677,157.93613809999079,157.93613809999079,158.30329489998985,z,1,0.3589223000453785,None,108142,001,2024-10-12_10h55.39.373,MotorSequenceLearning,2024.1.5,None,2024-10-12 10h55.45.871970 +0530,
-50,x,17,0,68,0,,,,,158.3189684000099,,158.30401339998934,158.3189684000099,159.31920560006984,159.31920560006984,159.31920560006984,159.31920560006984,159.31920560006984,160.31694280006923,160.31694280006923,160.60137559997384,x,1,0.2772271999856457,None,108142,001,2024-10-12_10h55.39.373,MotorSequenceLearning,2024.1.5,None,2024-10-12 10h55.45.871970 +0530,
150,v,17,1,69,1,,,,,160.61676460003946,,160.60201949998736,160.61676460003946,161.61738399998285,161.61738399998285,161.61738399998285,161.61738399998285,161.61738399998285,162.61674980004318,162.61674980004318,162.91789639997296,v,1,0.29939069994725287,None,108142,001,2024-10-12_10h55.39.373,MotorSequenceLearning,2024.1.5,None,2024-10-12 10h55.45.871970 +0530,
50,c,17,2,70,2,,,,,162.93248730001505,,162.91966979997233,162.93248730001505,163.9321563000558,163.9321563000558,163.9321563000558,163.9321563000558,163.9321563000558,164.9311170000583,164.9311170000583,165.26598999998532,c,1,0.3254419000586495,None,108142,001,2024-10-12_10h55.39.373,MotorSequenceLearning,2024.1.5,None,2024-10-12 10h55.45.871970 +0530,
-150,z,17,3,71,3,,,,,165.28049330005888,,165.2678446000209,165.28049330005888,166.2795956999762,166.2795956999762,166.2795956999762,166.2795956999762,166.2795956999762,167.27855829999316,167.27855829999316,167.4135955000529,z,1,0.11986400000751019,None,108142,001,2024-10-12_10h55.39.373,MotorSequenceLearning,2024.1.5,None,2024-10-12 10h55.45.871970 +0530,
-50,x,18,0,72,0,,,,,167.42827320005745,,167.41603690001648,167.42827320005745,168.42742480000015,168.42742480000015,168.42742480000015,168.42742480000015,168.42742480000015,169.42573350004386,169.42573350004386,169.79451410006732,x,1,0.35479919996578246,None,108142,001,2024-10-12_10h55.39.373,MotorSequenceLearning,2024.1.5,None,2024-10-12 10h55.45.871970 +0530,
150,v,18,1,73,1,,,,,169.80927399999928,,169.7964620999992,169.80927399999928,170.80853749997914,170.80853749997914,170.80853749997914,170.80853749997914,170.80853749997914,171.80784000002313,171.80784000002313,172.10964300006162,v,1,0.29665679996833205,None,108142,001,2024-10-12_10h55.39.373,MotorSequenceLearning,2024.1.5,None,2024-10-12 10h55.45.871970 +0530,
50,c,18,2,74,2,,,,,172.12402300001122,,172.11143360007554,172.12402300001122,173.12360360007733,173.12360360007733,173.12360360007733,173.12360360007733,173.12360360007733,174.12209159997292,174.12209159997292,174.4233366000699,c,1,0.2984961000038311,None,108142,001,2024-10-12_10h55.39.373,MotorSequenceLearning,2024.1.5,None,2024-10-12 10h55.45.871970 +0530,
-150,z,18,3,75,3,,,,,174.43833400006406,,174.42557469999883,174.43833400006406,175.43780239997432,175.43780239997432,175.43780239997432,175.43780239997432,175.43780239997432,176.43672300002072,176.43672300002072,176.50485120003577,z,1,0.06347050005570054,None,108142,001,2024-10-12_10h55.39.373,MotorSequenceLearning,2024.1.5,None,2024-10-12 10h55.45.871970 +0530,
-50,x,19,0,76,0,,,,,176.51974440005142,,176.50668700004462,176.51974440005142,177.51905250002164,177.51905250002164,177.51905250002164,177.51905250002164,177.51905250002164,178.5179449999705,178.5179449999705,178.8362801000476,x,1,0.3138328999048099,None,108142,001,2024-10-12_10h55.39.373,MotorSequenceLearning,2024.1.5,None,2024-10-12 10h55.45.871970 +0530,
150,v,19,1,77,1,,,,,178.85094620008022,,178.83835330000147,178.85094620008022,179.85024350008462,179.85024350008462,179.85024350008462,179.85024350008462,179.85024350008462,180.84892999997828,180.84892999997828,181.13406830001622,v,1,0.2777581999544054,None,108142,001,2024-10-12_10h55.39.373,MotorSequenceLearning,2024.1.5,None,2024-10-12 10h55.45.871970 +0530,
50,c,19,2,78,2,,,,,181.14888160000555,,181.13602960004937,181.14888160000555,182.14849050005432,182.14849050005432,182.14849050005432,182.14849050005432,182.14849050005432,183.14677500003017,183.14677500003017,183.4319910000777,c,1,0.2791029999498278,None,108142,001,2024-10-12_10h55.39.373,MotorSequenceLearning,2024.1.5,None,2024-10-12 10h55.45.871970 +0530,
-150,z,19,3,79,3,,,,,183.44650510000065,,183.43445569998585,183.44650510000065,184.4462980000535,184.4462980000535,184.4462980000535,184.4462980000535,184.4462980000535,185.44490290002432,185.44490290002432,185.72984759998508,z,1,0.2743004000512883,None,108142,001,2024-10-12_10h55.39.373,MotorSequenceLearning,2024.1.5,None,2024-10-12 10h55.45.871970 +0530,
-50,x,20,0,80,0,,,,,185.744405800011,,185.73184839996975,185.744405800011,186.74411690002307,186.74411690002307,186.74411690002307,186.74411690002307,186.74411690002307,187.74242130003404,187.74242130003404,188.02725550008472,x,1,0.2751680000219494,None,108142,001,2024-10-12_10h55.39.373,MotorSequenceLearning,2024.1.5,None,2024-10-12 10h55.45.871970 +0530,
150,v,20,1,81,1,,,,,188.0421467999695,,188.02914220001549,188.0421467999695,189.04208849999122,189.04208849999122,189.04208849999122,189.04208849999122,189.04208849999122,190.04044170002453,190.04044170002453,190.42523719999008,v,1,0.3753630999708548,None,108142,001,2024-10-12_10h55.39.373,MotorSequenceLearning,2024.1.5,None,2024-10-12 10h55.45.871970 +0530,
50,c,20,2,82,2,,,,,190.44004630006384,,190.427237899974,190.44004630006384,191.43931480008177,191.43931480008177,191.43931480008177,191.43931480008177,191.43931480008177,192.43867559998762,192.43867559998762,192.73951029998716,c,1,0.285709899966605,None,108142,001,2024-10-12_10h55.39.373,MotorSequenceLearning,2024.1.5,None,2024-10-12 10h55.45.871970 +0530,
-150,z,20,3,83,3,,,,,192.75446890003514,,192.741342500085,192.75446890003514,193.75433660007548,193.75433660007548,193.75433660007548,193.75433660007548,193.75433660007548,194.75286070001312,194.75286070001312,194.9711057000095,z,1,0.20444250002037734,None,108142,001,2024-10-12_10h55.39.373,MotorSequenceLearning,2024.1.5,None,2024-10-12 10h55.45.871970 +0530,
-50,x,21,0,84,0,,,,,194.9856864999747,,194.97318810003344,194.9856864999747,195.98539839999285,195.98539839999285,195.98539839999285,195.98539839999285,195.98539839999285,196.98415660008322,196.98415660008322,197.06967440003064,x,1,0.0834701000712812,None,108142,001,2024-10-12_10h55.39.373,MotorSequenceLearning,2024.1.5,None,2024-10-12 10h55.45.871970 +0530,
150,v,21,1,85,1,,,,,197.08413299999665,,197.07174320006743,197.08413299999665,198.08319520007353,198.08319520007353,198.08319520007353,198.08319520007353,198.08319520007353,199.08209859998897,199.08209859998897,199.367674899986,v,1,0.2801022999919951,None,108142,001,2024-10-12_10h55.39.373,MotorSequenceLearning,2024.1.5,None,2024-10-12 10h55.45.871970 +0530,
50,c,21,2,86,2,,,,,199.38167380006053,,199.36975670000538,199.38167380006053,200.38167680008337,200.38167680008337,200.38167680008337,200.38167680008337,200.38167680008337,201.3798435999779,201.3798435999779,201.56449050002266,c,1,0.168498000013642,None,108142,001,2024-10-12_10h55.39.373,MotorSequenceLearning,2024.1.5,None,2024-10-12 10h55.45.871970 +0530,
-150,z,21,3,87,3,,,,,201.57957270008046,,201.5666813000571,201.57957270008046,202.5791284000734,202.5791284000734,202.5791284000734,202.5791284000734,202.5791284000734,203.57781559997238,203.57781559997238,203.69624449999537,z,1,0.10480990004725754,None,108142,001,2024-10-12_10h55.39.373,MotorSequenceLearning,2024.1.5,None,2024-10-12 10h55.45.871970 +0530,
-50,x,22,0,88,0,,,,,203.71122170006856,,203.6981919000391,203.71122170006856,204.70987610006705,204.70987610006705,204.70987610006705,204.70987610006705,204.70987610006705,205.70930330001283,205.70930330001283,207.52616820007097,x,1,1.8050619999412447,None,108142,001,2024-10-12_10h55.39.373,MotorSequenceLearning,2024.1.5,None,2024-10-12 10h55.45.871970 +0530,
150,v,22,1,89,1,,,,,207.5408154000761,,207.52811830001883,207.5408154000761,208.54020240006503,208.54020240006503,208.54020240006503,208.54020240006503,208.54020240006503,209.53894990007393,209.53894990007393,209.90657230000943,v,1,0.3512513000750914,None,108142,001,2024-10-12_10h55.39.373,MotorSequenceLearning,2024.1.5,None,2024-10-12 10h55.45.871970 +0530,
50,c,22,2,90,2,,,,,209.92126319999807,,209.9085064000683,209.92126319999807,210.92006580007728,210.92006580007728,210.92006580007728,210.92006580007728,210.9365306000691,211.91911140002776,211.91911140002776,212.15307790006045,c,1,0.23247220006305724,None,108142,001,2024-10-12_10h55.39.373,MotorSequenceLearning,2024.1.5,None,2024-10-12 10h55.45.871970 +0530,
-150,z,22,3,91,3,,,,,212.16880840004887,,212.15380570001435,212.16880840004887,213.15226360002998,213.15226360002998,213.15226360002998,213.15226360002998,213.1683975000633,214.16719319997355,214.16719319997355,214.45130710001104,z,1,0.2810769999632612,None,108142,001,2024-10-12_10h55.39.373,MotorSequenceLearning,2024.1.5,None,2024-10-12 10h55.45.871970 +0530,
-50,x,23,0,92,0,,,,,214.46676670003217,,214.4523253000807,214.46676670003217,215.4667948000133,215.4667948000133,215.4667948000133,215.4667948000133,215.4667948000133,216.46596850000788,216.46596850000788,216.78414460003842,x,1,0.3070512000704184,None,108142,001,2024-10-12_10h55.39.373,MotorSequenceLearning,2024.1.5,None,2024-10-12 10h55.45.871970 +0530,
150,v,23,1,93,1,,,,,216.79879160004202,,216.78614970005583,216.79879160004202,217.86945260001812,217.86945260001812,217.86945260001812,217.86945260001812,217.86945260001812,218.79684960003942,218.79684960003942,219.01573760004248,v,1,0.2161734999390319,None,108142,001,2024-10-12_10h55.39.373,MotorSequenceLearning,2024.1.5,None,2024-10-12 10h55.45.871970 +0530,
50,c,23,2,94,2,,,,,219.02998880005907,,219.01773209997918,219.02998880005907,220.02911540004425,220.02911540004425,220.02911540004425,220.02911540004425,220.02911540004425,221.02818530006334,221.02818530006334,221.49648900004104,c,1,0.4567359999055043,None,108142,001,2024-10-12_10h55.39.373,MotorSequenceLearning,2024.1.5,None,2024-10-12 10h55.45.871970 +0530,
-150,z,23,3,95,3,,,,,221.51110210001934,,221.4986964999698,221.51110210001934,222.51070710003842,222.51070710003842,222.51070710003842,222.51070710003842,222.51070710003842,223.5090676000109,223.5090676000109,223.91086659999564,z,1,0.3859420999651775,None,108142,001,2024-10-12_10h55.39.373,MotorSequenceLearning,2024.1.5,None,2024-10-12 10h55.45.871970 +0530,
-50,x,24,0,96,0,,,,,223.92567190004047,,223.9128426000243,223.92567190004047,224.9248338000616,224.9248338000616,224.9248338000616,224.9248338000616,224.9248338000616,225.92352499999106,225.92352499999106,226.24205650005024,x,1,0.311124200001359,None,108142,001,2024-10-12_10h55.39.373,MotorSequenceLearning,2024.1.5,None,2024-10-12 10h55.45.871970 +0530,
150,v,24,1,97,1,,,,,226.25666730001103,,226.2440505999839,226.25666730001103,227.256263300078,227.256263300078,227.256263300078,227.256263300078,227.256263300078,228.25462520006113,228.25462520006113,228.67290640005376,c,0,0.40577500010840595,None,108142,001,2024-10-12_10h55.39.373,MotorSequenceLearning,2024.1.5,None,2024-10-12 10h55.45.871970 +0530,
50,c,24,2,98,2,,,,,228.68769370007794,,228.67485130007844,228.68769370007794,229.68709580006544,229.68709580006544,229.68709580006544,229.68709580006544,229.68709580006544,230.68591340002604,230.68591340002604,230.98789790004957,c,1,0.2991411000257358,None,108142,001,2024-10-12_10h55.39.373,MotorSequenceLearning,2024.1.5,None,2024-10-12 10h55.45.871970 +0530,
-150,z,24,3,99,3,,,,,231.00221080007032,,230.98989610001445,231.00221080007032,232.00163650000468,232.00163650000468,232.00163650000468,232.00163650000468,232.00163650000468,233.0003629999701,233.0003629999701,233.68517630000133,z,1,0.6718084000749514,None,108142,001,2024-10-12_10h55.39.373,MotorSequenceLearning,2024.1.5,None,2024-10-12 10h55.45.871970 +0530,
-50,x,25,0,100,0,,,,,233.69982890004758,,233.68693109997548,233.69982890004758,234.69907840003725,234.69907840003725,234.69907840003725,234.69907840003725,234.71535399998538,235.69765280000865,235.69765280000865,236.3989096999867,x,1,0.6877321000210941,None,108142,001,2024-10-12_10h55.39.373,MotorSequenceLearning,2024.1.5,None,2024-10-12 10h55.45.871970 +0530,
150,v,25,1,101,1,,,,,236.41346190008335,,236.40062119998038,236.41346190008335,237.4131892999867,237.4131892999867,237.4131892999867,237.4131892999867,237.4131892999867,238.41256359999534,238.41256359999534,239.0466528000543,v,1,0.6264643999747932,None,108142,001,2024-10-12_10h55.39.373,MotorSequenceLearning,2024.1.5,None,2024-10-12 10h55.45.871970 +0530,
50,c,25,2,102,2,,,,,239.0612835000502,,239.04869470000267,239.0612835000502,240.0608166999882,240.0608166999882,240.0608166999882,240.0608166999882,240.0608166999882,241.05864820000716,241.05864820000716,241.36117220006417,c,1,0.2964115999639034,None,108142,001,2024-10-12_10h55.39.373,MotorSequenceLearning,2024.1.5,None,2024-10-12 10h55.45.871970 +0530,
-150,z,25,3,103,3,,,,,241.37579439999536,,241.36314450006466,241.37579439999536,242.3750810000347,242.3750810000347,242.3750810000347,242.3750810000347,242.3750810000347,243.37409030005801,243.37409030005801,244.0085433999775,z,1,0.6294369000243023,None,108142,001,2024-10-12_10h55.39.373,MotorSequenceLearning,2024.1.5,None,2024-10-12 10h55.45.871970 +0530,
-50,x,26,0,104,0,,,,,244.02326300006825,,244.01049640006386,244.02326300006825,245.02267410000786,245.02267410000786,245.02267410000786,245.02267410000786,245.02267410000786,246.02158559998497,246.02158559998497,246.68997750000563,x,1,0.664675600011833,None,108142,001,2024-10-12_10h55.39.373,MotorSequenceLearning,2024.1.5,None,2024-10-12 10h55.45.871970 +0530,
150,v,26,1,105,1,,,,,246.7043972000247,,246.6919092000462,246.7043972000247,247.7038395999698,247.7038395999698,247.7038395999698,247.7038395999698,247.7038395999698,248.70151769998483,248.70151769998483,249.01972049998585,v,1,0.3074429000262171,None,108142,001,2024-10-12_10h55.39.373,MotorSequenceLearning,2024.1.5,None,2024-10-12 10h55.45.871970 +0530,
50,c,26,2,106,2,,,,,249.03490049997345,,249.02102830004878,249.03490049997345,250.03394079999998,250.03394079999998,250.03394079999998,250.03394079999998,250.0505753000034,251.03251300007105,251.03251300007105,251.3834001000505,c,1,0.340851099928841,None,108142,001,2024-10-12_10h55.39.373,MotorSequenceLearning,2024.1.5,None,2024-10-12 10h55.45.871970 +0530,
-150,z,26,3,107,3,,,,,251.39905420003925,,251.384622600046,251.39905420003925,252.39940990007017,252.39940990007017,252.39940990007017,252.39940990007017,252.39940990007017,253.39718329999596,253.39718329999596,253.89773389999755,z,1,0.49098280002363026,None,108142,001,2024-10-12_10h55.39.373,MotorSequenceLearning,2024.1.5,None,2024-10-12 10h55.45.871970 +0530,
-50,x,27,0,108,0,,,,,253.91320399998222,,253.89842059998773,253.91320399998222,254.91335370007437,254.91335370007437,254.91335370007437,254.91335370007437,254.91335370007437,255.91248960001394,255.91248960001394,256.3477992999833,x,1,0.4318434000015259,None,108142,001,2024-10-12_10h55.39.373,MotorSequenceLearning,2024.1.5,None,2024-10-12 10h55.45.871970 +0530,
150,v,27,1,109,1,,,,,256.36219920008443,,256.3500916999765,256.36219920008443,257.3616501999786,257.3616501999786,257.3616501999786,257.3616501999786,257.3616501999786,258.3601760000456,258.3601760000456,258.91119180002715,v,1,0.538227399927564,None,108142,001,2024-10-12_10h55.39.373,MotorSequenceLearning,2024.1.5,None,2024-10-12 10h55.45.871970 +0530,
50,c,27,2,110,2,,,,,258.9258674000157,,258.9129503000295,258.9258674000157,259.9259670000756,259.9259670000756,259.9259670000756,259.9259670000756,259.9259670000756,260.924391400069,260.924391400069,261.4254807999823,c,1,0.4928969000466168,None,108142,001,2024-10-12_10h55.39.373,MotorSequenceLearning,2024.1.5,None,2024-10-12 10h55.45.871970 +0530,
-150,z,27,3,111,3,,,,,261.4404321999755,,261.42749929998536,261.4404321999755,262.4398940000683,262.4398940000683,262.4398940000683,262.4398940000683,262.4398940000683,263.43864910001867,263.43864910001867,264.2400512000313,z,1,0.7888056999072433,None,108142,001,2024-10-12_10h55.39.373,MotorSequenceLearning,2024.1.5,None,2024-10-12 10h55.45.871970 +0530,
-50,x,28,0,112,0,,,,,264.254361600033,,264.24214440002106,264.254361600033,265.25444200006314,265.25444200006314,265.25444200006314,265.25444200006314,265.25444200006314,266.25290429999586,266.25290429999586,266.8704213000601,x,1,0.6086813999572769,None,108142,001,2024-10-12_10h55.39.373,MotorSequenceLearning,2024.1.5,None,2024-10-12 10h55.45.871970 +0530,
150,v,28,1,113,1,,,,,266.8853568000486,,266.87215619999915,266.8853568000486,267.8847533999942,267.8847533999942,267.8847533999942,267.8847533999942,267.8847533999942,268.88305950001813,268.88305950001813,269.4683127000462,v,1,0.5731248999945819,None,108142,001,2024-10-12_10h55.39.373,MotorSequenceLearning,2024.1.5,None,2024-10-12 10h55.45.871970 +0530,
50,c,28,2,114,2,,,,,269.4830667000497,,269.47040079999715,269.4830667000497,270.48220570001286,270.48220570001286,270.48220570001286,270.48220570001286,270.48220570001286,271.48094130004756,271.48094130004756,271.8658537999727,c,1,0.36888049996923655,None,108142,001,2024-10-12_10h55.39.373,MotorSequenceLearning,2024.1.5,None,2024-10-12 10h55.45.871970 +0530,
-150,z,28,3,115,3,,,,,271.88086979999207,,271.8678473000182,271.88086979999207,272.8807988000335,272.8807988000335,272.8807988000335,272.8807988000335,272.8807988000335,273.87886699999217,273.87886699999217,275.2104219000321,z,1,1.3267953000031412,None,108142,001,2024-10-12_10h55.39.373,MotorSequenceLearning,2024.1.5,None,2024-10-12 10h55.45.871970 +0530,
-50,x,29,0,116,0,,,,,275.2264164000517,,275.2110845000716,275.2264164000517,276.21032700000796,276.21032700000796,276.21032700000796,276.21032700000796,276.22690340003464,277.225667300052,277.225667300052,277.8770561000565,x,1,0.634127700002864,None,108142,001,2024-10-12_10h55.39.373,MotorSequenceLearning,2024.1.5,None,2024-10-12 10h55.45.871970 +0530,
150,v,29,1,117,1,,,,,277.8917261000024,,277.87899540003855,277.8917261000024,278.8911116999807,278.8911116999807,278.8911116999807,278.8911116999807,278.8911116999807,279.8898204000434,279.8898204000434,280.40652620000765,v,1,0.5115404999814928,None,108142,001,2024-10-12_10h55.39.373,MotorSequenceLearning,2024.1.5,None,2024-10-12 10h55.45.871970 +0530,
50,c,29,2,118,2,,,,,280.4218086000765,,280.40802730002906,280.4218086000765,281.42234090005513,281.42234090005513,281.42234090005513,281.42234090005513,281.42234090005513,282.42129189998377,282.42129189998377,282.95530959998723,c,1,0.5169675000943244,None,108142,001,2024-10-12_10h55.39.373,MotorSequenceLearning,2024.1.5,None,2024-10-12 10h55.45.871970 +0530,
-150,z,29,3,119,3,,,,,282.9705259000184,,282.95732839999255,282.9705259000184,283.96948390000034,283.96948390000034,283.96948390000034,283.96948390000034,283.96948390000034,284.968643900007,284.968643900007,285.3200233000098,z,1,0.33840339991729707,None,108142,001,2024-10-12_10h55.39.373,MotorSequenceLearning,2024.1.5,None,2024-10-12 10h55.45.871970 +0530,
-50,x,30,0,120,0,,,,,285.3348500999855,,285.3221889999695,285.3348500999855,286.334194199997,286.334194199997,286.334194199997,286.334194199997,286.334194199997,287.33360340003856,287.33360340003856,287.7848831000738,x,1,0.44587340008001775,None,108142,001,2024-10-12_10h55.39.373,MotorSequenceLearning,2024.1.5,None,2024-10-12 10h55.45.871970 +0530,
150,v,30,1,121,1,,,,,287.7992672000546,,287.78793980006594,287.7992672000546,288.79837470001075,288.79837470001075,288.79837470001075,288.79837470001075,288.79837470001075,289.79738460003864,289.79738460003864,290.2993480999721,v,1,0.4997854999965057,None,108142,001,2024-10-12_10h55.39.373,MotorSequenceLearning,2024.1.5,None,2024-10-12 10h55.45.871970 +0530,
50,c,30,2,122,2,,,,,290.3136547000613,,290.30127250007354,290.3136547000613,291.31254519999493,291.31254519999493,291.31254519999493,291.31254519999493,291.31254519999493,292.31196870002896,292.31196870002896,292.5797478000168,c,1,0.2567180999321863,None,108142,001,2024-10-12_10h55.39.373,MotorSequenceLearning,2024.1.5,None,2024-10-12 10h55.45.871970 +0530,
-150,z,30,3,123,3,,,,,292.59474520001095,,292.5818534999853,292.59474520001095,293.59386550006457,293.59386550006457,293.59386550006457,293.59386550006457,293.59386550006457,294.59288470004685,294.59288470004685,295.17751329997554,z,1,0.5672480999492109,None,108142,001,2024-10-12_10h55.39.373,MotorSequenceLearning,2024.1.5,None,2024-10-12 10h55.45.871970 +0530,
-50,x,31,0,124,0,,,,,295.1926626000786,,295.179576799972,295.1926626000786,296.19183869997505,296.19183869997505,296.19183869997505,296.19183869997505,296.20842000003904,297.1904797999887,297.1904797999887,297.69212460005656,x,1,0.4923274000175297,None,108142,001,2024-10-12_10h55.39.373,MotorSequenceLearning,2024.1.5,None,2024-10-12 10h55.45.871970 +0530,
150,v,31,1,125,1,,,,,297.70668439997826,,297.6943418000592,297.70668439997826,298.7064215000719,298.7064215000719,298.7064215000719,298.7064215000719,298.7064215000719,299.70515870000236,299.70515870000236,300.1060931000393,v,1,0.3835630000103265,None,108142,001,2024-10-12_10h55.39.373,MotorSequenceLearning,2024.1.5,None,2024-10-12 10h55.45.871970 +0530,
50,c,31,2,126,2,,,,,300.121051400085,,300.1080853000749,300.121051400085,301.1205882000504,301.1205882000504,301.1205882000504,301.1205882000504,301.1205882000504,302.1192984000081,302.1192984000081,302.4544349000789,c,1,0.3185552000068128,None,108142,001,2024-10-12_10h55.39.373,MotorSequenceLearning,2024.1.5,None,2024-10-12 10h55.45.871970 +0530,
-150,z,31,3,127,3,,,,,302.468902099994,,302.456517899991,302.468902099994,303.4681215999881,303.4681215999881,303.4681215999881,303.4681215999881,303.4681215999881,304.46675430005416,304.46675430005416,304.7019219000358,z,1,0.22366330004297197,None,108142,001,2024-10-12_10h55.39.373,MotorSequenceLearning,2024.1.5,None,2024-10-12 10h55.45.871970 +0530,
-50,x,32,0,128,0,,,,,304.7166645000689,,304.70381670002826,304.7166645000689,305.7157721000258,305.7157721000258,305.7157721000258,305.7157721000258,305.7157721000258,306.71475310006645,306.71475310006645,307.0345677000005,x,1,0.3095392999239266,None,108142,001,2024-10-12_10h55.39.373,MotorSequenceLearning,2024.1.5,None,2024-10-12 10h55.45.871970 +0530,
150,v,32,1,129,1,,,,,307.04836280003656,,307.03678900003433,307.04836280003656,308.04705000005197,308.04705000005197,308.04705000005197,308.04705000005197,308.06360700004734,309.0459936000407,309.0459936000407,309.56410990003496,v,1,0.511336199939251,None,108142,001,2024-10-12_10h55.39.373,MotorSequenceLearning,2024.1.5,None,2024-10-12 10h55.45.871970 +0530,
50,c,32,2,130,2,,,,,309.5788763000164,,309.5660696000559,309.5788763000164,310.5782447999809,310.5782447999809,310.5782447999809,310.5782447999809,310.5782447999809,311.57686070003547,311.57686070003547,311.8786536999978,c,1,0.29304070002399385,None,108142,001,2024-10-12_10h55.39.373,MotorSequenceLearning,2024.1.5,None,2024-10-12 10h55.45.871970 +0530,
-150,z,32,3,131,3,,,,,311.89330420002807,,311.88064610003494,311.89330420002807,312.89265070005786,312.89265070005786,312.89265070005786,312.89265070005786,312.89265070005786,313.89142460003495,313.89142460003495,314.1920870000031,z,1,0.2846447000047192,None,108142,001,2024-10-12_10h55.39.373,MotorSequenceLearning,2024.1.5,None,2024-10-12 10h55.45.871970 +0530,
-50,x,33,0,132,0,,,,,314.2071528000524,,314.1938871999737,314.2071528000524,315.20712270005606,315.20712270005606,315.20712270005606,315.20712270005606,315.20712270005606,316.2058375000488,316.2058375000488,316.5076981000602,x,1,0.2883582999929786,None,108142,001,2024-10-12_10h55.39.373,MotorSequenceLearning,2024.1.5,None,2024-10-12 10h55.45.871970 +0530,
150,v,33,1,133,1,,,,,316.52265890000854,,316.5097697000019,316.52265890000854,317.52192149998154,317.52192149998154,317.52192149998154,317.52192149998154,317.53845800005365,318.5209598999936,318.5209598999936,318.75623240007553,v,1,0.2300120999570936,None,108142,001,2024-10-12_10h55.39.373,MotorSequenceLearning,2024.1.5,None,2024-10-12 10h55.45.871970 +0530,
50,c,33,2,134,2,,,,,318.7706001000479,,318.75819269998465,318.7706001000479,319.76972410001326,319.76972410001326,319.76972410001326,319.76972410001326,319.76972410001326,320.7684104000218,320.7684104000218,321.1031990000047,c,1,0.3185220999876037,None,108142,001,2024-10-12_10h55.39.373,MotorSequenceLearning,2024.1.5,None,2024-10-12 10h55.45.871970 +0530,
-150,z,33,3,135,3,,,,,321.1179838000098,,321.1049277000129,321.1179838000098,322.11761150008533,322.11761150008533,322.11761150008533,322.11761150008533,322.11761150008533,323.11617080005817,323.11617080005817,323.46775559999514,z,1,0.344011600012891,None,108142,001,2024-10-12_10h55.39.373,MotorSequenceLearning,2024.1.5,None,2024-10-12 10h55.45.871970 +0530,
-50,x,34,0,136,0,,,,,323.4825668000849,,323.46977289998904,323.4825668000849,324.48156119999476,324.48156119999476,324.48156119999476,324.48156119999476,324.48156119999476,325.4805767000653,325.4805767000653,326.16519400000107,x,1,0.6727909999899566,None,108142,001,2024-10-12_10h55.39.373,MotorSequenceLearning,2024.1.5,None,2024-10-12 10h55.45.871970 +0530,
150,v,34,1,137,1,,,,,326.18014660000335,,326.1671978000086,326.18014660000335,327.17918259999715,327.17918259999715,327.17918259999715,327.17918259999715,327.17918259999715,328.17815310007427,328.17815310007427,328.4464703000849,v,1,0.252332599950023,None,108142,001,2024-10-12_10h55.39.373,MotorSequenceLearning,2024.1.5,None,2024-10-12 10h55.45.871970 +0530,
50,c,34,2,138,2,,,,,328.4612946000416,,328.448641300085,328.4612946000416,329.46039170003496,329.46039170003496,329.46039170003496,329.46039170003496,329.46039170003496,330.4595239000628,330.4595239000628,330.97719130001497,c,1,0.5090582000557333,None,108142,001,2024-10-12_10h55.39.373,MotorSequenceLearning,2024.1.5,None,2024-10-12 10h55.45.871970 +0530,
-150,z,34,3,139,3,,,,,330.9922279000748,,330.97926070005633,330.9922279000748,331.9915764000034,331.9915764000034,331.9915764000034,331.9915764000034,331.9915764000034,332.9903362999903,332.9903362999903,333.34197289997246,z,1,0.3401616000337526,None,108142,001,2024-10-12_10h55.39.373,MotorSequenceLearning,2024.1.5,None,2024-10-12 10h55.45.871970 +0530,
-50,x,35,0,140,0,,,,,333.3566200999776,,333.3439515000209,333.3566200999776,334.3560437000124,334.3560437000124,334.3560437000124,334.3560437000124,334.3560437000124,335.35489369998686,335.35489369998686,335.6568787000142,x,1,0.29808320000302047,None,108142,001,2024-10-12_10h55.39.373,MotorSequenceLearning,2024.1.5,None,2024-10-12 10h55.45.871970 +0530,
150,v,35,1,141,1,,,,,335.6710587000707,,335.65885320003144,335.6710587000707,336.6707141000079,336.6707141000079,336.6707141000079,336.6707141000079,336.6707141000079,337.6692568999715,337.6692568999715,337.88764880003873,v,1,0.2116930999327451,None,108142,001,2024-10-12_10h55.39.373,MotorSequenceLearning,2024.1.5,None,2024-10-12 10h55.45.871970 +0530,
50,c,35,2,142,2,,,,,337.9025000000838,,337.8896227000514,337.9025000000838,338.9021298000589,338.9021298000589,338.9021298000589,338.9021298000589,338.9021298000589,339.90047740004957,339.90047740004957,340.0528428000398,c,1,0.15031059994362295,None,108142,001,2024-10-12_10h55.39.373,MotorSequenceLearning,2024.1.5,None,2024-10-12 10h55.45.871970 +0530,
-150,z,35,3,143,3,,,,,340.0671566000674,,340.0548890000209,340.0671566000674,341.0657387999818,341.0657387999818,341.0657387999818,341.0657387999818,341.0820302000502,342.06436040007975,342.06436040007975,342.4977556000231,z,1,0.41644159995485097,None,108142,001,2024-10-12_10h55.39.373,MotorSequenceLearning,2024.1.5,None,2024-10-12 10h55.45.871970 +0530,
-50,x,36,0,144,0,,,,,342.5135513000423,,342.49891139997635,342.5135513000423,343.51402930007316,343.51402930007316,343.51402930007316,343.51402930007316,343.51402930007316,344.51224020007066,344.51224020007066,345.07905240007676,x,1,0.5570354999508709,None,108142,001,2024-10-12_10h55.39.373,MotorSequenceLearning,2024.1.5,None,2024-10-12 10h55.45.871970 +0530,
150,v,36,1,145,1,,,,,345.09489659999963,,345.07979680004064,345.09489659999963,346.0950222000247,346.0950222000247,346.0950222000247,346.0950222000247,346.0950222000247,347.09350800001994,347.09350800001994,347.41269010002725,v,1,0.3048378999810666,None,108142,001,2024-10-12_10h55.39.373,MotorSequenceLearning,2024.1.5,None,2024-10-12 10h55.45.871970 +0530,
50,c,36,2,146,2,,,,,347.4273364000255,,347.41484680003487,347.4273364000255,348.4261700999923,348.4261700999923,348.4261700999923,348.4261700999923,348.44267979997676,349.42494180006906,349.42494180006906,350.24275990005117,c,1,0.8065528000006452,None,108142,001,2024-10-12_10h55.39.373,MotorSequenceLearning,2024.1.5,None,2024-10-12 10h55.45.871970 +0530,
-150,z,36,3,147,3,,,,,350.2585156999994,,350.24497700005304,350.2585156999994,351.25682900007814,351.25682900007814,351.25682900007814,351.25682900007814,351.2740579000674,352.25556560000405,352.25556560000405,352.57452520006336,z,1,0.3138312000082806,None,108142,001,2024-10-12_10h55.39.373,MotorSequenceLearning,2024.1.5,None,2024-10-12 10h55.45.871970 +0530,
-50,x,37,0,148,0,,,,,352.5887766000815,,352.57643230003305,352.5887766000815,353.58834070002194,353.58834070002194,353.58834070002194,353.58834070002194,353.58834070002194,354.5868578000227,354.5868578000227,355.2209158000769,x,1,0.6180809999350458,None,108142,001,2024-10-12_10h55.39.373,MotorSequenceLearning,2024.1.5,None,2024-10-12 10h55.45.871970 +0530,
150,v,37,1,149,1,,,,,355.23604500002693,,355.22286079998594,355.23604500002693,356.2361892000772,356.2361892000772,356.2361892000772,356.2361892000772,356.2361892000772,357.2345165000297,357.2345165000297,357.6026737000793,v,1,0.35776699997950345,None,108142,001,2024-10-12_10h55.39.373,MotorSequenceLearning,2024.1.5,None,2024-10-12 10h55.45.871970 +0530,
50,c,37,2,150,2,,,,,357.61746450001374,,357.6045169000281,357.61746450001374,358.6168603000697,358.6168603000697,358.6168603000697,358.6168603000697,358.6168603000697,359.615421500057,359.615421500057,360.28354109998327,c,1,0.6520969000412151,None,108142,001,2024-10-12_10h55.39.373,MotorSequenceLearning,2024.1.5,None,2024-10-12 10h55.45.871970 +0530,
-150,z,37,3,151,3,,,,,360.29829609999433,,360.28545490000397,360.29829609999433,361.29770200001076,361.29770200001076,361.29770200001076,361.29770200001076,361.29770200001076,362.29636290005874,362.29636290005874,362.61458799999673,z,1,0.30315940000582486,None,108142,001,2024-10-12_10h55.39.373,MotorSequenceLearning,2024.1.5,None,2024-10-12 10h55.45.871970 +0530,
-50,x,38,0,152,0,,,,,362.6292869000463,,362.61654630000703,362.6292869000463,363.6290950999828,363.6290950999828,363.6290950999828,363.6290950999828,363.6290950999828,364.62788500008173,364.62788500008173,365.01241980004124,x,1,0.3778767000185326,None,108142,001,2024-10-12_10h55.39.373,MotorSequenceLearning,2024.1.5,None,2024-10-12 10h55.45.871970 +0530,
150,v,38,1,153,1,,,,,365.0270765000023,,365.01451340003405,365.0270765000023,366.0264224000275,366.0264224000275,366.0264224000275,366.0264224000275,366.04287990008015,367.02516279998235,367.02516279998235,367.4284070000285,v,1,0.3889689000789076,None,108142,001,2024-10-12_10h55.39.373,MotorSequenceLearning,2024.1.5,None,2024-10-12 10h55.45.871970 +0530,
50,c,38,2,154,2,,,,,367.44182240008377,,367.43045370001346,367.44182240008377,368.4409424000187,368.4409424000187,368.4409424000187,368.4409424000187,368.4409424000187,369.43965950002894,369.43965950002894,369.9748797999928,c,1,0.5299609999638051,None,108142,001,2024-10-12_10h55.39.373,MotorSequenceLearning,2024.1.5,None,2024-10-12 10h55.45.871970 +0530,
-150,z,38,3,155,3,,,,,369.9891835000599,,369.97685840004124,369.9891835000599,370.9882574999938,370.9882574999938,370.9882574999938,370.9882574999938,370.9882574999938,371.9870173999807,371.9870173999807,372.53893839998636,z,1,0.5491653999779373,None,108142,001,2024-10-12_10h55.39.373,MotorSequenceLearning,2024.1.5,None,2024-10-12 10h55.45.871970 +0530,
-50,x,39,0,156,0,,,,,372.5533694999758,,372.5409721999895,372.5533694999758,373.55325720005203,373.55325720005203,373.55325720005203,373.55325720005203,373.55325720005203,374.55177080002613,374.55177080002613,374.95269880001433,x,1,0.39561630005482584,None,108142,001,2024-10-12_10h55.39.373,MotorSequenceLearning,2024.1.5,None,2024-10-12 10h55.45.871970 +0530,
150,v,39,1,157,1,,,,,374.96710910007823,,374.9544817999704,374.96710910007823,375.9662848999724,375.9662848999724,375.9662848999724,375.9662848999724,375.9831966999918,376.96540900005493,376.96540900005493,377.28379000001587,v,1,0.3157317000441253,None,108142,001,2024-10-12_10h55.39.373,MotorSequenceLearning,2024.1.5,None,2024-10-12 10h55.45.871970 +0530,
50,c,39,2,158,2,,,,,377.2986937999958,,377.2849275000626,377.2986937999958,378.2981353000505,378.2981353000505,378.2981353000505,378.2981353000505,378.2981353000505,379.2971288000699,379.2971288000699,379.9317428000504,c,1,0.6235964999068528,None,108142,001,2024-10-12_10h55.39.373,MotorSequenceLearning,2024.1.5,None,2024-10-12 10h55.45.871970 +0530,
-150,z,39,3,159,3,,,,,379.94688409997616,,379.93378920003306,379.94688409997616,380.9457404999994,380.9457404999994,380.9457404999994,380.9457404999994,380.9457404999994,381.9446629000595,381.9446629000595,382.3619023000356,z,1,0.40223539993166924,None,108142,001,2024-10-12_10h55.39.373,MotorSequenceLearning,2024.1.5,None,2024-10-12 10h55.45.871970 +0530,
-50,x,40,0,160,0,,,,,382.37770429998636,,382.3630261999788,382.37770429998636,383.37703289999627,383.37703289999627,383.37703289999627,383.37703289999627,383.37703289999627,384.3756611000281,384.3756611000281,384.79451350006275,x,1,0.4133825999451801,None,108142,001,2024-10-12_10h55.39.373,MotorSequenceLearning,2024.1.5,None,2024-10-12 10h55.45.871970 +0530,
150,v,40,1,161,1,,,,,384.80851630005054,,384.796427500085,384.80851630005054,385.80777339998167,385.80777339998167,385.80777339998167,385.80777339998167,385.80777339998167,386.80661930004135,386.80661930004135,386.8591075000586,v,1,0.03471379994880408,None,108142,001,2024-10-12_10h55.39.373,MotorSequenceLearning,2024.1.5,None,2024-10-12 10h55.45.871970 +0530,
50,c,40,2,162,2,,,,,386.8733850000426,,386.86184050003067,386.8733850000426,387.87324810004793,387.87324810004793,387.87324810004793,387.87324810004793,387.87324810004793,388.8713794000214,388.8713794000214,389.5565607000608,c,1,0.6820914000272751,None,108142,001,2024-10-12_10h55.39.373,MotorSequenceLearning,2024.1.5,None,2024-10-12 10h55.45.871970 +0530,
-150,z,40,3,163,3,,,,,389.571045699995,,389.55869890004396,389.571045699995,390.5703961000545,390.5703961000545,390.5703961000545,390.5703961000545,390.5703961000545,391.5689594000578,391.5689594000578,391.9211914000334,z,1,0.3489717999473214,None,108142,001,2024-10-12_10h55.39.373,MotorSequenceLearning,2024.1.5,None,2024-10-12 10h55.45.871970 +0530,
-50,x,41,0,164,0,,,,,391.9356421000557,,391.92344280006364,391.9356421000557,392.9349366000388,392.9349366000388,392.9349366000388,392.9349366000388,392.9349366000388,393.93341920000967,393.93341920000967,394.6347353999736,x,1,0.6941226999042556,None,108142,001,2024-10-12_10h55.39.373,MotorSequenceLearning,2024.1.5,None,2024-10-12 10h55.45.871970 +0530,
150,v,41,1,165,1,,,,,394.64952510001604,,394.63665730005596,394.64952510001604,395.6488930999767,395.6488930999767,395.6488930999767,395.6488930999767,395.6488930999767,396.64790360000916,396.64790360000916,397.1989249000326,v,1,0.5351425999542698,None,108142,001,2024-10-12_10h55.39.373,MotorSequenceLearning,2024.1.5,None,2024-10-12 10h55.45.871970 +0530,
50,c,41,2,166,2,,,,,397.21379369997885,,397.2009724000236,397.21379369997885,398.2133450000547,398.2133450000547,398.2133450000547,398.2133450000547,398.2133450000547,399.21188640000764,399.21188640000764,399.76315560005605,c,1,0.5412568000610918,None,108142,001,2024-10-12_10h55.39.373,MotorSequenceLearning,2024.1.5,None,2024-10-12 10h55.45.871970 +0530,
-150,z,41,3,167,3,,,,,399.7779012999963,,399.7652230000822,399.7779012999963,400.7773670000024,400.7773670000024,400.7773670000024,400.7773670000024,400.7773670000024,401.7749984000111,401.7749984000111,402.1423554000212,z,1,0.3530964000383392,None,108142,001,2024-10-12_10h55.39.373,MotorSequenceLearning,2024.1.5,None,2024-10-12 10h55.45.871970 +0530,
-50,x,42,0,168,0,,,,,402.1583424999844,,402.1433597999858,402.1583424999844,403.1570268999785,403.1570268999785,403.1570268999785,403.1570268999785,403.1744075000752,404.1562880000565,404.1562880000565,404.53992860007565,x,1,0.37294179992750287,None,108142,001,2024-10-12_10h55.39.373,MotorSequenceLearning,2024.1.5,None,2024-10-12 10h55.45.871970 +0530,
150,v,42,1,169,1,,,,,404.5557496000547,,404.5405947000254,404.5557496000547,405.53815450007096,405.53815450007096,405.53815450007096,405.53815450007096,405.5547912999755,406.5549731000792,406.5549731000792,406.92354680004064,v,1,0.35209539998322725,None,108142,001,2024-10-12_10h55.39.373,MotorSequenceLearning,2024.1.5,None,2024-10-12 10h55.45.871970 +0530,
50,c,42,2,170,2,,,,,406.93798090005293,,406.9255298000062,406.93798090005293,407.9377073000651,407.9377073000651,407.9377073000651,407.9377073000651,407.9377073000651,408.93611520004924,408.93611520004924,409.35340859997086,z,0,0.4131863999646157,None,108142,001,2024-10-12_10h55.39.373,MotorSequenceLearning,2024.1.5,None,2024-10-12 10h55.45.871970 +0530,
-150,z,42,3,171,3,,,,,409.3685355000198,,409.3546768000815,409.3685355000198,410.3682742000092,410.3682742000092,410.3682742000092,410.3682742000092,410.3682742000092,411.36729219998233,411.36729219998233,411.7028802999994,z,1,0.3332432999741286,None,108142,001,2024-10-12_10h55.39.373,MotorSequenceLearning,2024.1.5,None,2024-10-12 10h55.45.871970 +0530,
-50,x,43,0,172,0,,,,,411.7169503000332,,411.70494109997526,411.7169503000332,412.7161599000683,412.7161599000683,412.7161599000683,412.7161599000683,412.7161599000683,413.7148311000783,413.7148311000783,414.28303719998803,x,1,0.5632404000498354,None,108142,001,2024-10-12_10h55.39.373,MotorSequenceLearning,2024.1.5,None,2024-10-12 10h55.45.871970 +0530,
150,v,43,1,173,1,,,,,414.29814700002316,,414.2848489000462,414.29814700002316,415.2975542000495,415.2975542000495,415.2975542000495,415.2975542000495,415.3140082000755,416.29656569997314,416.29656569997314,416.6310403000098,v,1,0.33178260002750903,None,108142,001,2024-10-12_10h55.39.373,MotorSequenceLearning,2024.1.5,None,2024-10-12 10h55.45.871970 +0530,
50,c,43,2,174,2,,,,,416.6454511000775,,416.63299790001474,416.6454511000775,417.6450523000676,417.6450523000676,417.6450523000676,417.6450523000676,417.6450523000676,418.6436813999899,418.6436813999899,419.3453776000533,c,1,0.6896920000435784,None,108142,001,2024-10-12_10h55.39.373,MotorSequenceLearning,2024.1.5,None,2024-10-12 10h55.45.871970 +0530,
-150,z,43,3,175,3,,,,,419.3596033999929,,419.3472202999983,419.3596033999929,420.35932829999365,420.35932829999365,420.35932829999365,420.35932829999365,420.35932829999365,421.358154800022,421.358154800022,421.75976960000116,z,1,0.3982028999598697,None,108142,001,2024-10-12_10h55.39.373,MotorSequenceLearning,2024.1.5,None,2024-10-12 10h55.45.871970 +0530,
-50,x,44,0,176,0,,,,,421.77436290006153,,421.76183530001435,421.77436290006153,422.7736916000722,422.7736916000722,422.7736916000722,422.7736916000722,422.7736916000722,423.7726700999774,423.7726700999774,424.24061510001775,x,1,0.46129070001188666,None,108142,001,2024-10-12_10h55.39.373,MotorSequenceLearning,2024.1.5,None,2024-10-12 10h55.45.871970 +0530,
150,v,44,1,177,1,,,,,424.2551857000217,,424.2426448999904,424.2551857000217,425.25446079997346,425.25446079997346,425.25446079997346,425.25446079997346,425.25446079997346,426.25378809997346,426.25378809997346,426.6887598000467,v,1,0.43154210003558546,None,108142,001,2024-10-12_10h55.39.373,MotorSequenceLearning,2024.1.5,None,2024-10-12 10h55.45.871970 +0530,
50,c,44,2,178,2,,,,,426.7029131000163,,426.6908073000377,426.7029131000163,427.70230960007757,427.70230960007757,427.70230960007757,427.70230960007757,427.70230960007757,428.70104389998596,428.70104389998596,429.319531199988,c,1,0.612870900076814,None,108142,001,2024-10-12_10h55.39.373,MotorSequenceLearning,2024.1.5,None,2024-10-12 10h55.45.871970 +0530,
-150,z,44,3,179,3,,,,,429.33377390005626,,429.32154570007697,429.33377390005626,430.3335820999928,430.3335820999928,430.3335820999928,430.3335820999928,430.3335820999928,431.3322012000717,431.3322012000717,431.7333177999826,z,1,0.38626669999212027,None,108142,001,2024-10-12_10h55.39.373,MotorSequenceLearning,2024.1.5,None,2024-10-12 10h55.45.871970 +0530,
-50,x,45,0,180,0,,,,,431.74809900007676,,431.7354048000416,431.74809900007676,432.7476666000439,432.7476666000439,432.7476666000439,432.7476666000439,432.7476666000439,433.7463377000531,433.7463377000531,433.98127200000454,x,1,0.2227223999798298,None,108142,001,2024-10-12_10h55.39.373,MotorSequenceLearning,2024.1.5,None,2024-10-12 10h55.45.871970 +0530,
150,v,45,1,181,1,,,,,433.99600799998734,,433.9832162000239,433.99600799998734,434.99560949997976,434.99560949997976,434.99560949997976,434.99560949997976,434.99560949997976,435.99407270003576,435.99407270003576,436.14636340003926,v,1,0.13536720001138747,None,108142,001,2024-10-12_10h55.39.373,MotorSequenceLearning,2024.1.5,None,2024-10-12 10h55.45.871970 +0530,
50,c,45,2,182,2,,,,,436.16086549998727,,436.14891890005674,436.16086549998727,437.16011370008346,437.16011370008346,437.16011370008346,437.16011370008346,437.16011370008346,438.159241400077,438.159241400077,438.54365040000994,c,1,0.37496020004618913,None,108142,001,2024-10-12_10h55.39.373,MotorSequenceLearning,2024.1.5,None,2024-10-12 10h55.45.871970 +0530,
-150,z,45,3,183,3,,,,,438.55847639997955,,438.5456310000736,438.55847639997955,439.55753620003816,439.55753620003816,439.55753620003816,439.55753620003816,439.55753620003816,440.5566357000498,440.5566357000498,440.8421193000395,z,1,0.28349930001422763,None,108142,001,2024-10-12_10h55.39.373,MotorSequenceLearning,2024.1.5,None,2024-10-12 10h55.45.871970 +0530,
-50,x,46,0,184,0,,,,,440.8565142999869,,440.84408880001865,440.8565142999869,441.85575240000617,441.85575240000617,441.85575240000617,441.85575240000617,441.85575240000617,442.8540229999926,442.8540229999926,443.1882509000134,x,1,0.32313730008900166,None,108142,001,2024-10-12_10h55.39.373,MotorSequenceLearning,2024.1.5,None,2024-10-12 10h55.45.871970 +0530,
150,v,46,1,185,1,,,,,443.20365190005396,,443.1894508000696,443.20365190005396,444.2028157999739,444.2028157999739,444.2028157999739,444.2028157999739,444.2028157999739,445.20192130003124,445.20192130003124,445.55278290004935,v,1,0.3383723999140784,None,108142,001,2024-10-12_10h55.39.373,MotorSequenceLearning,2024.1.5,None,2024-10-12 10h55.45.871970 +0530,
50,c,46,2,186,2,,,,,445.56786459998693,,445.55398049997166,445.56786459998693,446.56788970006164,446.56788970006164,446.56788970006164,446.56788970006164,446.56788970006164,447.56681049999315,447.56681049999315,448.1679501000326,c,1,0.5841429999563843,None,108142,001,2024-10-12_10h55.39.373,MotorSequenceLearning,2024.1.5,None,2024-10-12 10h55.45.871970 +0530,
-150,z,46,3,187,3,,,,,448.18282730004285,,448.1700254000025,448.18282730004285,449.1819826000137,449.1819826000137,449.1819826000137,449.1819826000137,449.1819826000137,450.1809281000169,450.1809281000169,450.4500965999905,z,1,0.26598649995867163,None,108142,001,2024-10-12_10h55.39.373,MotorSequenceLearning,2024.1.5,None,2024-10-12 10h55.45.871970 +0530,
-50,x,47,0,188,0,,,,,450.464218200068,,450.4522054999834,450.464218200068,451.4634459000081,451.4634459000081,451.4634459000081,451.4634459000081,451.4634459000081,452.4621115999762,452.4621115999762,452.7801243000431,x,1,0.3034979000221938,None,108142,001,2024-10-12_10h55.39.373,MotorSequenceLearning,2024.1.5,None,2024-10-12 10h55.45.871970 +0530,
150,v,47,1,189,1,,,,,452.7955185000319,,452.7822314000223,452.7955185000319,453.79457839997485,453.79457839997485,453.79457839997485,453.79457839997485,453.81151959998533,454.7932870000368,454.7932870000368,455.11178050003946,v,1,0.30240379995666444,None,108142,001,2024-10-12_10h55.39.373,MotorSequenceLearning,2024.1.5,None,2024-10-12 10h55.45.871970 +0530,
50,c,47,2,190,2,,,,,455.126323100063,,455.1138412000146,455.126323100063,456.125870799995,456.125870799995,456.125870799995,456.125870799995,456.125870799995,457.1245406999951,457.1245406999951,457.74235990003217,c,1,0.6079974999884143,None,108142,001,2024-10-12_10h55.39.373,MotorSequenceLearning,2024.1.5,None,2024-10-12 10h55.45.871970 +0530,
-150,z,47,3,191,3,,,,,457.75711980008055,,457.74427889997605,457.75711980008055,458.75664290005807,458.75664290005807,458.75664290005807,458.75664290005807,458.75664290005807,459.7553498999914,459.7553498999914,460.190051499987,z,1,0.42106730001978576,None,108142,001,2024-10-12_10h55.39.373,MotorSequenceLearning,2024.1.5,None,2024-10-12 10h55.45.871970 +0530,
-50,x,48,0,192,0,,,,,460.20488289999776,,460.1918210000731,460.20488289999776,461.20419990003575,461.20419990003575,461.20419990003575,461.20419990003575,461.20419990003575,462.2030886000721,462.2030886000721,462.88803300005384,x,1,0.6782837000209838,None,108142,001,2024-10-12_10h55.39.373,MotorSequenceLearning,2024.1.5,None,2024-10-12 10h55.45.871970 +0530,
150,v,48,1,193,1,,,,,462.902382100001,,462.89010870002676,462.902382100001,463.90097389998846,463.90097389998846,463.90097389998846,463.90097389998846,463.9172149000224,464.89942000003066,464.89942000003066,465.0503349000355,v,1,0.13661919999867678,None,108142,001,2024-10-12_10h55.39.373,MotorSequenceLearning,2024.1.5,None,2024-10-12 10h55.45.871970 +0530,
50,c,48,2,194,2,,,,,465.06587240006775,,465.0511618000455,465.06587240006775,466.04985100007616,466.04985100007616,466.04985100007616,466.04985100007616,466.0679892000044,467.06410529999994,467.06410529999994,467.76427040004637,c,1,0.6959513999754563,None,108142,001,2024-10-12_10h55.39.373,MotorSequenceLearning,2024.1.5,None,2024-10-12 10h55.45.871970 +0530,
-150,z,48,3,195,3,,,,,467.78014539997093,,467.7649198999861,467.78014539997093,468.7639832000714,468.7639832000714,468.7639832000714,468.7639832000714,468.78073220001534,469.7796377000632,469.7796377000632,470.08088450005744,z,1,0.2905846999492496,None,108142,001,2024-10-12_10h55.39.373,MotorSequenceLearning,2024.1.5,None,2024-10-12 10h55.45.871970 +0530,
-50,x,49,0,196,0,,,,,470.0956260000821,,470.08291830006056,470.0956260000821,471.0953709000023,471.0953709000023,471.0953709000023,471.0953709000023,471.0953709000023,472.0938282000134,472.0938282000134,472.3289863000391,x,1,0.23044269997626543,None,108142,001,2024-10-12_10h55.39.373,MotorSequenceLearning,2024.1.5,None,2024-10-12 10h55.45.871970 +0530,
150,v,49,1,197,1,,,,,472.3434212000575,,472.3308556000702,472.3434212000575,473.3431252000155,473.3431252000155,473.3431252000155,473.3431252000155,473.3431252000155,474.34207900008187,474.34207900008187,474.59313930000644,v,1,0.24046070000622422,None,108142,001,2024-10-12_10h55.39.373,MotorSequenceLearning,2024.1.5,None,2024-10-12 10h55.45.871970 +0530,
50,c,49,2,198,2,,,,,474.6084385999711,,474.59503910003696,474.6084385999711,475.6076135999756,475.6076135999756,475.6076135999756,475.6076135999756,475.6076135999756,476.6064247000031,476.6064247000031,476.8745451000286,c,1,0.25916940008755773,None,108142,001,2024-10-12_10h55.39.373,MotorSequenceLearning,2024.1.5,None,2024-10-12 10h55.45.871970 +0530,
-150,z,49,3,199,3,,,,,476.88926550000906,,476.8763490000274,476.88926550000906,477.88891550002154,477.88891550002154,477.88891550002154,477.88891550002154,477.88891550002154,478.8874822000507,478.8874822000507,479.138848099974,z,1,0.24673549993894994,None,108142,001,2024-10-12_10h55.39.373,MotorSequenceLearning,2024.1.5,None,2024-10-12 10h55.45.871970 +0530,
150,v,,,,,0,0,0,1,479.1588292000815,,479.152603500057,479.1588292000815,480.1532480000751,480.1532480000751,480.1532480000751,480.1532480000751,480.17021070001647,481.1518669000361,481.1518669000361,481.1878467000788,v,1,0.033911600010469556,None,108142,001,2024-10-12_10h55.39.373,MotorSequenceLearning,2024.1.5,None,2024-10-12 10h55.45.871970 +0530,
-50,x,,,,,0,1,1,0,481.201882100082,,481.1906594000757,481.201882100082,482.2013595000608,482.2013595000608,482.2013595000608,482.2013595000608,482.2013595000608,483.200677899993,483.200677899993,483.61977520002984,x,1,0.41415059997234493,None,108142,001,2024-10-12_10h55.39.373,MotorSequenceLearning,2024.1.5,None,2024-10-12 10h55.45.871970 +0530,
50,c,,,,,0,2,2,2,483.633006600081,,483.6217560999794,483.633006600081,484.6323734000325,484.6323734000325,484.6323734000325,484.6323734000325,484.6323734000325,485.63130430004094,485.63130430004094,485.7329411000246,c,1,0.08977039996534586,None,108142,001,2024-10-12_10h55.39.373,MotorSequenceLearning,2024.1.5,None,2024-10-12 10h55.45.871970 +0530,
50,c,,,,,0,3,3,2,485.7475100000156,,485.7349186000647,485.7475100000156,486.7470476999879,486.7470476999879,486.7470476999879,486.7470476999879,486.7470476999879,487.74567029997706,487.74567029997706,487.98081790003926,v,0,0.22653520002495497,None,108142,001,2024-10-12_10h55.39.373,MotorSequenceLearning,2024.1.5,None,2024-10-12 10h55.45.871970 +0530,
-150,z,,,,,1,0,4,3,487.9955101000378,,487.9828477000119,487.9955101000378,488.994511900004,488.994511900004,488.994511900004,488.994511900004,488.994511900004,489.99404430005234,489.99404430005234,490.46214329998475,z,1,0.46602859999984503,None,108142,001,2024-10-12_10h55.39.373,MotorSequenceLearning,2024.1.5,None,2024-10-12 10h55.45.871970 +0530,
150,v,,,,,1,1,5,1,490.47657379996963,,490.46407570003066,490.47657379996963,491.4760027000448,491.4760027000448,491.4760027000448,491.4760027000448,491.4760027000448,492.4741678000428,492.4741678000428,492.92495430004783,v,1,0.44363820005673915,None,108142,001,2024-10-12_10h55.39.373,MotorSequenceLearning,2024.1.5,None,2024-10-12 10h55.45.871970 +0530,
150,v,,,,,1,2,6,1,492.9403484000359,,492.9261587000219,492.9403484000359,493.9402748000575,493.9402748000575,493.9402748000575,493.9402748000575,493.9402748000575,494.9390793000348,494.9390793000348,495.6236793000717,v,1,0.6781563999829814,None,108142,001,2024-10-12_10h55.39.373,MotorSequenceLearning,2024.1.5,None,2024-10-12 10h55.45.871970 +0530,
-50,x,,,,,1,3,7,0,495.63845550001133,,495.6259381000418,495.63845550001133,496.6379568000557,496.6379568000557,496.6379568000557,496.6379568000557,496.6379568000557,497.6366072000237,497.6366072000237,498.1218818000052,x,1,0.4738280000165105,None,108142,001,2024-10-12_10h55.39.373,MotorSequenceLearning,2024.1.5,None,2024-10-12 10h55.45.871970 +0530,
-50,x,,,,,2,0,8,0,498.1359716000734,,498.1237886999734,498.1359716000734,499.1355889000697,499.1355889000697,499.1355889000697,499.1355889000697,499.1355889000697,500.1342786999885,500.1342786999885,500.6840065000579,x,1,0.548147700028494,None,108142,001,2024-10-12_10h55.39.373,MotorSequenceLearning,2024.1.5,None,2024-10-12 10h55.45.871970 +0530,
-150,z,,,,,2,1,9,3,500.6994190000696,,500.6852508999873,500.6994190000696,501.69869109999854,501.69869109999854,501.69869109999854,501.69869109999854,501.69869109999854,502.69761869998183,502.69761869998183,503.3161737000337,z,1,0.6030630000168458,None,108142,001,2024-10-12_10h55.39.373,MotorSequenceLearning,2024.1.5,None,2024-10-12 10h55.45.871970 +0530,
150,v,,,,,2,2,10,1,503.3311126000481,,503.31798669998534,503.3311126000481,504.32937579997815,504.32937579997815,504.32937579997815,504.32937579997815,504.34620240004733,505.32847309997305,505.32847309997305,505.77982639998663,v,1,0.44753300002776086,None,108142,001,2024-10-12_10h55.39.373,MotorSequenceLearning,2024.1.5,None,2024-10-12 10h55.45.871970 +0530,
-50,x,,,,,2,3,11,0,505.79507980006747,,505.78103020007256,505.79507980006747,506.7945972000016,506.7945972000016,506.7945972000016,506.7945972000016,506.7945972000016,507.79385270003695,507.79385270003695,508.36182730004657,x,1,0.5607442000182346,None,108142,001,2024-10-12_10h55.39.373,MotorSequenceLearning,2024.1.5,None,2024-10-12 10h55.45.871970 +0530,
-50,x,,,,,3,0,12,0,508.377370400005,,508.3638174000662,508.377370400005,509.37647800007835,509.37647800007835,509.37647800007835,509.37647800007835,509.39283360005356,510.3747928000521,510.3747928000521,510.9596574000316,x,1,0.5781682999804616,None,108142,001,2024-10-12_10h55.39.373,MotorSequenceLearning,2024.1.5,None,2024-10-12 10h55.45.871970 +0530,
50,c,,,,,3,1,13,2,510.9740770000499,,510.96172080002725,510.9740770000499,511.9734296000097,511.9734296000097,511.9734296000097,511.9734296000097,511.9734296000097,512.9716547999997,512.9716547999997,513.7567509000655,c,1,0.7822909000096843,None,108142,001,2024-10-12_10h55.39.373,MotorSequenceLearning,2024.1.5,None,2024-10-12 10h55.45.871970 +0530,
150,v,,,,,3,2,14,1,513.7716019999934,,513.7589933000272,513.7716019999934,514.7708968999796,514.7708968999796,514.7708968999796,514.7708968999796,514.7708968999796,515.7696690000594,515.7696690000594,516.3043677000096,v,1,0.5208043999737129,None,108142,001,2024-10-12_10h55.39.373,MotorSequenceLearning,2024.1.5,None,2024-10-12 10h55.45.871970 +0530,
-50,x,,,,,3,3,15,0,516.3191671000095,,516.3063984999899,516.3191671000095,517.3186734999763,517.3186734999763,517.3186734999763,517.3186734999763,517.3186734999763,518.3172712000087,518.3172712000087,518.8519576999824,x,1,0.5179929999867454,None,108142,001,2024-10-12_10h55.39.373,MotorSequenceLearning,2024.1.5,None,2024-10-12 10h55.45.871970 +0530,
50,c,,,,,4,0,16,2,518.866868800018,,518.8536848999793,518.866868800018,519.866633299971,519.866633299971,519.866633299971,519.866633299971,519.866633299971,520.8648703000508,520.8648703000508,521.3496824000031,c,1,0.469696499989368,None,108142,001,2024-10-12_10h55.39.373,MotorSequenceLearning,2024.1.5,None,2024-10-12 10h55.45.871970 +0530,
-50,x,,,,,4,1,17,0,521.3645381000824,,521.3515265000751,521.3645381000824,522.3636989999795,522.3636989999795,522.3636989999795,522.3636989999795,522.3636989999795,523.3628433999838,523.3628433999838,523.8475479000481,x,1,0.4697376999538392,None,108142,001,2024-10-12_10h55.39.373,MotorSequenceLearning,2024.1.5,None,2024-10-12 10h55.45.871970 +0530,
50,c,,,,,4,2,18,2,523.8622813000111,,523.8493338000262,523.8622813000111,524.8620186999906,524.8620186999906,524.8620186999906,524.8620186999906,524.8620186999906,525.8605969999917,525.8605969999917,526.2614723000443,c,1,0.38418140006251633,None,108142,001,2024-10-12_10h55.39.373,MotorSequenceLearning,2024.1.5,None,2024-10-12 10h55.45.871970 +0530,
-150,z,,,,,4,3,19,3,526.2765765000368,,526.2634160000598,526.2765765000368,527.2762402000371,527.2762402000371,527.2762402000371,527.2762402000371,527.2762402000371,528.2747458000667,528.2747458000667,528.9413237000117,z,1,0.6515441000228748,None,108142,001,2024-10-12_10h55.39.373,MotorSequenceLearning,2024.1.5,None,2024-10-12 10h55.45.871970 +0530,
-50,x,,,,,5,0,20,0,528.9568688999861,,528.9425418999745,528.9568688999861,529.9573895999929,529.9573895999929,529.9573895999929,529.9573895999929,529.9573895999929,530.9545976000372,530.9545976000372,531.5384583000559,x,1,0.5688379999483004,None,108142,001,2024-10-12_10h55.39.373,MotorSequenceLearning,2024.1.5,None,2024-10-12 10h55.45.871970 +0530,
50,c,,,,,5,1,21,2,531.5541567000328,,531.5397382000228,531.5541567000328,532.5379068000475,532.5379068000475,532.5379068000475,532.5379068000475,532.5544866999844,533.5533665000694,533.5533665000694,533.8874086000724,c,1,0.31749990000389516,None,108142,001,2024-10-12_10h55.39.373,MotorSequenceLearning,2024.1.5,None,2024-10-12 10h55.45.871970 +0530,
50,c,,,,,5,2,22,2,533.9028225999791,,533.8894002999878,533.9028225999791,534.9021218999987,534.9021218999987,534.9021218999987,534.9021218999987,534.9021218999987,535.901598699973,535.901598699973,536.4191417000256,c,1,0.5093751000240445,None,108142,001,2024-10-12_10h55.39.373,MotorSequenceLearning,2024.1.5,None,2024-10-12 10h55.45.871970 +0530,
-50,x,,,,,5,3,23,0,536.4342720999848,,536.4212029000046,536.4342720999848,537.4333999999799,537.4333999999799,537.4333999999799,537.4333999999799,537.4496897000354,538.4323864000617,538.4323864000617,538.85010530008,x,1,0.40952260000631213,None,108142,001,2024-10-12_10h55.39.373,MotorSequenceLearning,2024.1.5,None,2024-10-12 10h55.45.871970 +0530,
-50,x,,,,,6,0,24,0,538.8649323000573,,538.8520157000748,538.8649323000573,539.8640486000804,539.8640486000804,539.8640486000804,539.8640486000804,539.8807842000388,540.8630672000581,540.8630672000581,541.3632903000107,x,1,0.49352470005396754,None,108142,001,2024-10-12_10h55.39.373,MotorSequenceLearning,2024.1.5,None,2024-10-12 10h55.45.871970 +0530,
-150,z,,,,,6,1,25,3,541.378472500015,,541.3644463000819,541.378472500015,542.3785029000137,542.3785029000137,542.3785029000137,542.3785029000137,542.3785029000137,543.3779954999918,543.3779954999918,544.028571199975,z,1,0.6401805999921635,None,108142,001,2024-10-12_10h55.39.373,MotorSequenceLearning,2024.1.5,None,2024-10-12 10h55.45.871970 +0530,
-150,z,,,,,6,2,26,3,544.043232499971,,544.0306653999723,544.043232499971,545.042666100082,545.042666100082,545.042666100082,545.042666100082,545.042666100082,546.0415920000523,546.0415920000523,546.6428892000113,z,1,0.589053500094451,None,108142,001,2024-10-12_10h55.39.373,MotorSequenceLearning,2024.1.5,None,2024-10-12 10h55.45.871970 +0530,
50,c,,,,,6,3,27,2,546.6575764999725,,546.6452825000742,546.6575764999725,547.6574160000309,547.6574160000309,547.6574160000309,547.6574160000309,547.6574160000309,548.6564407000551,548.6564407000551,549.1240280000493,c,1,0.45387909992132336,None,108142,001,2024-10-12_10h55.39.373,MotorSequenceLearning,2024.1.5,None,2024-10-12 10h55.45.871970 +0530,
150,v,,,,,7,0,28,1,549.1385416000849,,549.1265048000496,549.1385416000849,550.1383858000627,550.1383858000627,550.1383858000627,550.1383858000627,550.1383858000627,551.1367996999761,551.1367996999761,551.6055347999791,v,1,0.4654231999302283,None,108142,001,2024-10-12_10h55.39.373,MotorSequenceLearning,2024.1.5,None,2024-10-12 10h55.45.871970 +0530,
-50,x,,,,,7,1,29,0,551.6195620000362,,551.6075669000857,551.6195620000362,552.6189579999773,552.6189579999773,552.6189579999773,552.6189579999773,552.6189579999773,553.6177068999968,553.6177068999968,554.1719413000392,x,1,0.5442558000795543,None,108142,001,2024-10-12_10h55.39.373,MotorSequenceLearning,2024.1.5,None,2024-10-12 10h55.45.871970 +0530,
150,v,,,,,7,2,30,1,554.1832735000644,,554.1731347000459,554.1832735000644,555.1834841000382,555.1834841000382,555.1834841000382,555.1834841000382,555.1834841000382,556.1828440000536,556.1828440000536,557.1498025000328,v,1,0.964646799955517,None,108142,001,2024-10-12_10h55.39.373,MotorSequenceLearning,2024.1.5,None,2024-10-12 10h55.45.871970 +0530,
-150,z,,,,,7,3,31,3,557.1644532000646,,557.151723899995,557.1644532000646,558.163987100008,558.163987100008,558.163987100008,558.163987100008,558.163987100008,559.1624960000627,559.1624960000627,559.5807043000823,z,1,0.40209419990424067,None,108142,001,2024-10-12_10h55.39.373,MotorSequenceLearning,2024.1.5,None,2024-10-12 10h55.45.871970 +0530,
-50,x,,,,,8,0,32,0,559.5956310000038,,559.5827794000506,559.5956310000038,560.5944441000465,560.5944441000465,560.5944441000465,560.5944441000465,560.5944441000465,561.5940952000674,561.5940952000674,562.1621670000022,x,1,0.5564980000490323,None,108142,001,2024-10-12_10h55.39.373,MotorSequenceLearning,2024.1.5,None,2024-10-12 10h55.45.871970 +0530,
150,v,,,,,8,1,33,1,562.1763596000383,,562.1641832999885,562.1763596000383,563.1757656000555,563.1757656000555,563.1757656000555,563.1757656000555,563.1757656000555,564.1749294999754,564.1749294999754,564.7426053000381,v,1,0.5625446999911219,None,108142,001,2024-10-12_10h55.39.373,MotorSequenceLearning,2024.1.5,None,2024-10-12 10h55.45.871970 +0530,
-50,x,,,,,8,2,34,0,564.757633100031,,564.7445303000277,564.757633100031,565.7565712999785,565.7565712999785,565.7565712999785,565.7565712999785,565.7565712999785,566.7553891000571,566.7553891000571,567.4411064999877,x,1,0.6837179000722244,None,108142,001,2024-10-12_10h55.39.373,MotorSequenceLearning,2024.1.5,None,2024-10-12 10h55.45.871970 +0530,
50,c,,,,,8,3,35,2,567.4549401000841,,567.443042900064,567.4549401000841,568.454296000069,568.454296000069,568.454296000069,568.454296000069,568.4708130999934,569.4531469000503,569.4531469000503,570.1208209000761,c,1,0.6561380999628454,None,108142,001,2024-10-12_10h55.39.373,MotorSequenceLearning,2024.1.5,None,2024-10-12 10h55.45.871970 +0530,
-50,x,,,,,9,0,36,0,570.1357214000309,,570.1228721999796,570.1357214000309,571.1347879000241,571.1347879000241,571.1347879000241,571.1347879000241,571.1347879000241,572.1337561000837,572.1337561000837,572.5354730000254,x,1,0.3856855999911204,None,108142,001,2024-10-12_10h55.39.373,MotorSequenceLearning,2024.1.5,None,2024-10-12 10h55.45.871970 +0530,
-150,z,,,,,9,1,37,3,572.5502486000769,,572.5375616999809,572.5502486000769,573.5494160000235,573.5494160000235,573.5494160000235,573.5494160000235,573.5494160000235,574.54804350005,574.54804350005,575.0829056000803,z,1,0.5215063999639824,None,108142,001,2024-10-12_10h55.39.373,MotorSequenceLearning,2024.1.5,None,2024-10-12 10h55.45.871970 +0530,
-50,x,,,,,9,2,38,0,575.0977918000426,,575.0849033000413,575.0977918000426,576.0971103999764,576.0971103999764,576.0971103999764,576.0971103999764,576.0971103999764,577.0956943000201,577.0956943000201,577.5640427999897,x,1,0.46511979994829744,None,108142,001,2024-10-12_10h55.39.373,MotorSequenceLearning,2024.1.5,None,2024-10-12 10h55.45.871970 +0530,
-50,x,,,,,9,3,39,0,577.5788120999932,,577.5662323000142,577.5788120999932,578.5815063000191,578.5815063000191,578.5815063000191,578.5815063000191,578.5815063000191,579.577060700045,579.577060700045,580.0780722000636,x,1,0.4911156001035124,None,108142,001,2024-10-12_10h55.39.373,MotorSequenceLearning,2024.1.5,None,2024-10-12 10h55.45.871970 +0530,
50,c,,,,,10,0,40,2,580.0933781000786,,580.0798992000055,580.0933781000786,581.0912058000686,581.0912058000686,581.0912058000686,581.0912058000686,581.1082752000075,582.0901807000628,582.0901807000628,582.6072555000428,c,1,0.5112732000416145,None,108142,001,2024-10-12_10h55.39.373,MotorSequenceLearning,2024.1.5,None,2024-10-12 10h55.45.871970 +0530,
50,c,,,,,10,1,41,2,582.6230870999862,,582.608087599976,582.6230870999862,583.6224448999856,583.6224448999856,583.6224448999856,583.6224448999856,583.6224448999856,584.6207944999915,584.6207944999915,585.0723231000593,c,1,0.45044509996660054,None,108142,001,2024-10-12_10h55.39.373,MotorSequenceLearning,2024.1.5,None,2024-10-12 10h55.45.871970 +0530,
-150,z,,,,,10,2,42,3,585.087120900047,,585.0733860000037,585.087120900047,586.0880941000069,586.0880941000069,586.0880941000069,586.0880941000069,586.0880941000069,587.0862149000168,587.0862149000168,587.5378703000024,z,1,0.4371458999812603,None,108142,001,2024-10-12_10h55.39.373,MotorSequenceLearning,2024.1.5,None,2024-10-12 10h55.45.871970 +0530,
50,c,,,,,10,3,43,2,587.552555100061,,587.5396567999851,587.552555100061,588.5521397000412,588.5521397000412,588.5521397000412,588.5521397000412,588.5521397000412,589.5509970000712,589.5509970000712,590.0857769000577,c,1,0.5213427999988198,None,108142,001,2024-10-12_10h55.39.373,MotorSequenceLearning,2024.1.5,None,2024-10-12 10h55.45.871970 +0530,
50,c,,,,,11,0,44,2,590.1003720000153,,590.0878116000677,590.1003720000153,591.0997732999967,591.0997732999967,591.0997732999967,591.0997732999967,591.0997732999967,592.0986960000591,592.0986960000591,592.5336369000142,c,1,0.4249155999859795,None,108142,001,2024-10-12_10h55.39.373,MotorSequenceLearning,2024.1.5,None,2024-10-12 10h55.45.871970 +0530,
-50,x,,,,,11,1,45,0,592.5481058000587,,592.535664300085,592.5481058000587,593.5471726000542,593.5471726000542,593.5471726000542,593.5471726000542,593.5471726000542,594.5459993000841,594.5459993000841,595.2805869000731,x,1,0.7256340999156237,None,108142,001,2024-10-12_10h55.39.373,MotorSequenceLearning,2024.1.5,None,2024-10-12 10h55.45.871970 +0530,
150,v,,,,,11,2,46,1,595.2952892000321,,595.2823710000375,595.2952892000321,596.2947555000428,596.2947555000428,596.2947555000428,596.2947555000428,596.2947555000428,597.2936258000555,597.2936258000555,597.978653899976,v,1,0.6824417000170797,None,108142,001,2024-10-12_10h55.39.373,MotorSequenceLearning,2024.1.5,None,2024-10-12 10h55.45.871970 +0530,
50,c,,,,,11,3,47,2,597.9929913000669,,597.9806977000553,597.9929913000669,598.9925191000802,598.9925191000802,598.9925191000802,598.9925191000802,598.9925191000802,599.991343599977,599.991343599977,600.5423247000435,c,1,0.5429097000742331,None,108142,001,2024-10-12_10h55.39.373,MotorSequenceLearning,2024.1.5,None,2024-10-12 10h55.45.871970 +0530,
-150,z,,,,,12,0,48,3,600.5570636000484,,600.5443533000071,600.5570636000484,601.5567230000161,601.5567230000161,601.5567230000161,601.5567230000161,601.5567230000161,602.5554234000156,602.5554234000156,603.0907244000118,z,1,0.5310499999905005,None,108142,001,2024-10-12_10h55.39.373,MotorSequenceLearning,2024.1.5,None,2024-10-12 10h55.45.871970 +0530,
150,v,,,,,12,1,49,1,603.105220300029,,603.0927706999937,603.105220300029,604.1043415999738,604.1043415999738,604.1043415999738,604.1043415999738,604.1043415999738,605.102907499997,605.102907499997,605.6709446000168,v,1,0.5509122000075877,None,108142,001,2024-10-12_10h55.39.373,MotorSequenceLearning,2024.1.5,None,2024-10-12 10h55.45.871970 +0530,
50,c,,,,,12,2,50,2,605.6857309000334,,605.6730450000614,605.6857309000334,606.6854811999947,606.6854811999947,606.6854811999947,606.6854811999947,606.6854811999947,607.6843736000592,607.6843736000592,608.2851269000676,c,1,0.5868269000202417,None,108142,001,2024-10-12_10h55.39.373,MotorSequenceLearning,2024.1.5,None,2024-10-12 10h55.45.871970 +0530,
50,c,,,,,12,3,51,2,608.300136600039,,608.2871527000098,608.300136600039,609.299319999991,609.299319999991,609.299319999991,609.299319999991,609.3159871000098,610.2980400000233,610.2980400000233,610.7160066000652,c,1,0.4067322000628337,None,108142,001,2024-10-12_10h55.39.373,MotorSequenceLearning,2024.1.5,None,2024-10-12 10h55.45.871970 +0530,
150,v,,,,,13,0,52,1,610.7309939999832,,610.7179264000151,610.7309939999832,611.7302003999939,611.7302003999939,611.7302003999939,611.7302003999939,611.7302003999939,612.7291347000282,612.7291347000282,613.480286700069,v,1,0.7488526999950409,None,108142,001,2024-10-12_10h55.39.373,MotorSequenceLearning,2024.1.5,None,2024-10-12 10h55.45.871970 +0530,
-50,x,,,,,13,1,53,0,613.4950715000741,,613.4822076000273,613.4950715000741,614.4947032000637,614.4947032000637,614.4947032000637,614.4947032000637,614.4947032000637,615.4932391999755,615.4932391999755,616.0277201000135,x,1,0.5244433999760076,None,108142,001,2024-10-12_10h55.39.373,MotorSequenceLearning,2024.1.5,None,2024-10-12 10h55.45.871970 +0530,
-50,x,,,,,13,2,54,0,616.0427553000627,,616.0295525999973,616.0427553000627,617.0423516000155,617.0423516000155,617.0423516000155,617.0423516000155,617.0587173000677,618.0410621999763,618.0410621999763,618.4927049999824,x,1,0.44846089999191463,None,108142,001,2024-10-12_10h55.39.373,MotorSequenceLearning,2024.1.5,None,2024-10-12 10h55.45.871970 +0530,
50,c,,,,,13,3,55,2,618.5070994000416,,618.4947098999983,618.5070994000416,619.50635530008,619.50635530008,619.50635530008,619.50635530008,619.50635530008,620.5052388000768,620.5052388000768,621.1571671999991,c,1,0.6464702000375837,None,108142,001,2024-10-12_10h55.39.373,MotorSequenceLearning,2024.1.5,None,2024-10-12 10h55.45.871970 +0530,
50,c,,,,,14,0,56,2,621.1713378999848,,621.1592715000734,621.1713378999848,622.1713558000047,622.1713558000047,622.1713558000047,622.1713558000047,622.1713558000047,623.16926720005,623.16926720005,623.6046755000716,c,1,0.43252000003121793,None,108142,001,2024-10-12_10h55.39.373,MotorSequenceLearning,2024.1.5,None,2024-10-12 10h55.45.871970 +0530,
150,v,,,,,14,1,57,1,623.6188375999918,,623.606719900039,623.6188375999918,624.6185887000756,624.6185887000756,624.6185887000756,624.6185887000756,624.6185887000756,625.6173504000762,625.6173504000762,626.1356900000246,v,1,0.513137000030838,None,108142,001,2024-10-12_10h55.39.373,MotorSequenceLearning,2024.1.5,None,2024-10-12 10h55.45.871970 +0530,
150,v,,,,,14,2,58,1,626.1503030000022,,626.1375085000182,626.1503030000022,627.1494300999912,627.1494300999912,627.1494300999912,627.1494300999912,627.1660623999778,628.1482363999821,628.1482363999821,628.6495376999956,v,1,0.49237140000332147,None,108142,001,2024-10-12_10h55.39.373,MotorSequenceLearning,2024.1.5,None,2024-10-12 10h55.45.871970 +0530,
50,c,,,,,14,3,59,2,628.6644414999755,,628.6514525000239,628.6644414999755,629.6635601000162,629.6635601000162,629.6635601000162,629.6635601000162,629.6635601000162,630.6620022000279,630.6620022000279,631.1803105999716,c,1,0.5093224999727681,None,108142,001,2024-10-12_10h55.39.373,MotorSequenceLearning,2024.1.5,None,2024-10-12 10h55.45.871970 +0530,
-150,z,,,,,15,0,60,3,631.1952768000774,,631.1824423000216,631.1952768000774,632.194467100082,632.194467100082,632.194467100082,632.194467100082,632.194467100082,633.1933583000209,633.1933583000209,633.5617751000682,x,0,0.3591586999827996,None,108142,001,2024-10-12_10h55.39.373,MotorSequenceLearning,2024.1.5,None,2024-10-12 10h55.45.871970 +0530,
-150,z,,,,,15,1,61,3,633.576494100038,,633.5637766000582,633.576494100038,634.5758231000509,634.5758231000509,634.5758231000509,634.5758231000509,634.5758231000509,635.5744293000316,635.5744293000316,636.1089887000853,z,1,0.5199795999797061,None,108142,001,2024-10-12_10h55.39.373,MotorSequenceLearning,2024.1.5,None,2024-10-12 10h55.45.871970 +0530,
50,c,,,,,15,2,62,2,636.1240576000419,,636.1109181999927,636.1240576000419,637.1238598000491,637.1238598000491,637.1238598000491,637.1238598000491,637.1238598000491,638.1223334000679,638.1223334000679,638.8400760000804,c,1,0.7050873000407591,None,108142,001,2024-10-12_10h55.39.373,MotorSequenceLearning,2024.1.5,None,2024-10-12 10h55.45.871970 +0530,
-150,z,,,,,15,3,63,3,638.85485350003,,638.8421811000444,638.85485350003,639.8547757000197,639.8547757000197,639.8547757000197,639.8547757000197,639.8547757000197,640.8533011000836,640.8533011000836,641.3370145000517,z,1,0.46876640000846237,None,108142,001,2024-10-12_10h55.39.373,MotorSequenceLearning,2024.1.5,None,2024-10-12 10h55.45.871970 +0530,
150,v,,,,,16,0,64,1,641.3527275000233,,641.3388061000733,641.3527275000233,642.3513357000193,642.3513357000193,642.3513357000193,642.3513357000193,642.3673673999729,643.3497432000004,643.3497432000004,644.0662800000282,v,1,0.699675599928014,None,108142,001,2024-10-12_10h55.39.373,MotorSequenceLearning,2024.1.5,None,2024-10-12 10h55.45.871970 +0530,
50,c,,,,,16,1,65,2,644.0825422999915,,644.0676812999882,644.0825422999915,645.0818242999958,645.0818242999958,645.0818242999958,645.0818242999958,645.0818242999958,646.0805499000708,646.0805499000708,646.7992045000428,c,1,0.7029338999418542,None,108142,001,2024-10-12_10h55.39.373,MotorSequenceLearning,2024.1.5,None,2024-10-12 10h55.45.871970 +0530,
-50,x,,,,,16,2,66,0,646.8133846999845,,646.80022189999,646.8133846999845,647.813153599971,647.813153599971,647.813153599971,647.813153599971,647.813153599971,648.8121948000044,648.8121948000044,649.3644091000315,x,1,0.5380448000505567,None,108142,001,2024-10-12_10h55.39.373,MotorSequenceLearning,2024.1.5,None,2024-10-12 10h55.45.871970 +0530,
-50,x,,,,,16,3,67,0,649.3784153000452,,649.3663338000188,649.3784153000452,650.3779931999743,650.3779931999743,650.3779931999743,650.3779931999743,650.3779931999743,651.3773110000184,651.3773110000184,651.8097432000795,x,1,0.42720559996087104,None,108142,001,2024-10-12_10h55.39.373,MotorSequenceLearning,2024.1.5,None,2024-10-12 10h55.45.871970 +0530,
-150,z,,,,,17,0,68,3,651.825961500057,,651.8109400999965,651.825961500057,652.8253951000515,652.8253951000515,652.8253951000515,652.8253951000515,652.8253951000515,653.8245625999989,653.8245625999989,654.4092533000512,z,1,0.5780595999676734,None,108142,001,2024-10-12_10h55.39.373,MotorSequenceLearning,2024.1.5,None,2024-10-12 10h55.45.871970 +0530,
150,v,,,,,17,1,69,1,654.4238519000355,,654.4112886000657,654.4238519000355,655.4229218000546,655.4229218000546,655.4229218000546,655.4229218000546,655.4229218000546,656.4216304000001,656.4216304000001,657.1397381999996,v,1,0.7154405999463052,None,108142,001,2024-10-12_10h55.39.373,MotorSequenceLearning,2024.1.5,None,2024-10-12 10h55.45.871970 +0530,
150,v,,,,,17,2,70,1,657.1544564000797,,657.141803800012,657.1544564000797,658.1539909000276,658.1539909000276,658.1539909000276,658.1539909000276,658.1539909000276,659.1525313999737,659.1525313999737,659.8203901000088,v,1,0.6505799000151455,None,108142,001,2024-10-12_10h55.39.373,MotorSequenceLearning,2024.1.5,None,2024-10-12 10h55.45.871970 +0530,
-150,z,,,,,17,3,71,3,659.8353703999892,,659.8224876000313,659.8353703999892,660.8344355999725,660.8344355999725,660.8344355999725,660.8344355999725,660.8344355999725,661.8333834999939,661.8333834999939,662.3346082000062,z,1,0.4936644999543205,None,108142,001,2024-10-12_10h55.39.373,MotorSequenceLearning,2024.1.5,None,2024-10-12 10h55.45.871970 +0530,
50,c,,,,,18,0,72,2,662.3495829000603,,662.3363585000625,662.3495829000603,663.3489132000832,663.3489132000832,663.3489132000832,663.3489132000832,663.3489132000832,664.347706999979,664.347706999979,665.0652405000292,c,1,0.7014324000338092,None,108142,001,2024-10-12_10h55.39.373,MotorSequenceLearning,2024.1.5,None,2024-10-12 10h55.45.871970 +0530,
150,v,,,,,18,1,73,1,665.0802680000197,,665.0669908999698,665.0802680000197,666.079726499971,666.079726499971,666.079726499971,666.079726499971,666.079726499971,667.0780131000793,667.0780131000793,667.7296172999777,v,1,0.6369897000258788,None,108142,001,2024-10-12_10h55.39.373,MotorSequenceLearning,2024.1.5,None,2024-10-12 10h55.45.871970 +0530,
-150,z,,,,,18,2,74,3,667.744514400023,,667.7313816000242,667.744514400023,668.7441089000786,668.7441089000786,668.7441089000786,668.7441089000786,668.7441089000786,669.7425370999845,669.7425370999845,670.277268600068,z,1,0.5233760999981314,None,108142,001,2024-10-12_10h55.39.373,MotorSequenceLearning,2024.1.5,None,2024-10-12 10h55.45.871970 +0530,
50,c,,,,,18,3,75,2,670.2918837000616,,670.2798257999821,670.2918837000616,671.2920453000115,671.2920453000115,671.2920453000115,671.2920453000115,671.2920453000115,672.2902004000498,672.2902004000498,673.1081270000432,c,1,0.8055544999660924,None,108142,001,2024-10-12_10h55.39.373,MotorSequenceLearning,2024.1.5,None,2024-10-12 10h55.45.871970 +0530,
150,v,,,,,19,0,76,1,673.1231535000261,,673.1102008000016,673.1231535000261,674.1222045000177,674.1222045000177,674.1222045000177,674.1222045000177,674.1222045000177,675.1209627999924,675.1209627999924,675.7889565000078,v,1,0.6600272000068799,None,108142,001,2024-10-12_10h55.39.373,MotorSequenceLearning,2024.1.5,None,2024-10-12 10h55.45.871970 +0530,
-50,x,,,,,19,1,77,0,675.8038067000452,,675.7909514000639,675.8038067000452,676.8029110999778,676.8029110999778,676.8029110999778,676.8029110999778,676.8029110999778,677.8018831000663,677.8018831000663,678.5205953000113,x,1,0.7146857000188902,None,108142,001,2024-10-12_10h55.39.373,MotorSequenceLearning,2024.1.5,None,2024-10-12 10h55.45.871970 +0530,
-50,x,,,,,19,2,78,0,678.5346993000712,,678.5227873000549,678.5346993000712,679.5337783000432,679.5337783000432,679.5337783000432,679.5337783000432,679.5337783000432,680.5326903000241,680.5326903000241,681.1006018000189,x,1,0.555077499942854,None,108142,001,2024-10-12_10h55.39.373,MotorSequenceLearning,2024.1.5,None,2024-10-12 10h55.45.871970 +0530,
