delay,freq,condition,trials.thisRepN,trials.thisTrialN,trials.thisN,trials.thisIndex,thisRow.t,notes,trial.started,fixation.started,polygon.started,key_resp.started,fixation.stopped,trial.stopped,key_resp.keys,key_resp.rt,key_resp.duration,beep.started,sound_1.started,sound_1.stopped,beep.stopped,response.started,text.started,textbox.started,button.started,response.stopped,textbox.text,button.numClicks,button.timesOn,button.timesOff,participant,session,date,expName,psychopyVersion,frameRate,expStart,
0.7,400,unexp,0,0,0,2,0.017148799961432815,,0.012419499922543764,0.017148799961432815,1.0138724998105317,1.0138724998105317,1.0302375999744982,1.3428360999096185,space,0.31267000013031065,None,1.3461009999737144,2.0480092666732768,2.376052799867466,2.3472802999895066,2.3474115999415517,2.376052799867466,2.376052799867466,2.376052799867466,5.297138599911705,400,1,[2.946367199998349],[2.9463825998827815],01,001,2024-11-09_13h03.57.924,IntentionalBindingTask,2024.1.5,None,2024-11-09 13h04.09.149740 +0530,
0.1,1000,exp,0,1,1,3,5.310206699883565,,5.299120399868116,5.310206699883565,6.310799599858001,6.310799599858001,6.310799599858001,6.993165299994871,space,0.6681286999955773,None,6.993766600033268,7.1080127666393915,7.420529199996963,7.406803400022909,7.406825399957597,7.420529199996963,7.420529199996963,7.420529199996963,10.306596199981868,600,1,[2.898270000005141],[2.8982792999595404],01,001,2024-11-09_13h03.57.924,IntentionalBindingTask,2024.1.5,None,2024-11-09 13h04.09.149740 +0530,
0.1,1000,exp,0,2,2,6,10.321442199870944,,10.30758749996312,10.321442199870944,11.321946099866182,11.321946099866182,11.321946099866182,11.6909258000087,space,0.35721189994364977,None,11.691959999967366,11.805307366481673,,12.106994699919596,12.107046599965543,12.13532459991984,12.13532459991984,12.13532459991984,13.8199918998871,300,1,[1.7102192998863757],[1.710228299954906],01,001,2024-11-09_13h03.57.924,IntentionalBindingTask,2024.1.5,None,2024-11-09 13h04.09.149740 +0530,
0.7,1000,exp,0,3,3,11,13.834847199963406,,13.821456699864939,13.834847199963406,14.836243799887598,14.836243799887598,14.836243799887598,15.521779399830848,space,0.6719124000519514,None,15.522702799877152,16.235067166682953,16.560499999905005,16.53745780000463,16.537505799904466,16.560499999905005,16.560499999905005,16.560499999905005,18.454714899882674,500,1,[1.914589999942109],[1.9146036999300122],01,001,2024-11-09_13h03.57.924,IntentionalBindingTask,2024.1.5,None,2024-11-09 13h04.09.149740 +0530,
0.4,1000,exp,0,4,4,10,18.464920699829236,,18.456723499810323,18.464920699829236,19.464816499967128,19.464816499967128,19.464816499967128,19.75101999985054,space,0.28093489981256425,None,19.751853900030255,20.165404866511622,,20.467212399933487,20.467303599929437,20.490513499826193,20.490513499826193,20.490513499826193,21.951139899902046,300,1,[1.481059700017795],[1.481074000010267],01,001,2024-11-09_13h03.57.924,IntentionalBindingTask,2024.1.5,None,2024-11-09 13h04.09.149740 +0530,
0.7,1000,exp,0,5,5,8,21.96224599983543,,21.95290519995615,21.96224599983543,22.96278079994954,22.96278079994954,22.97788739996031,23.231417099945247,space,0.2642555001657456,None,23.232220199890435,23.94447526667888,24.27025599987246,24.247601500013843,24.247687899973243,24.27025599987246,24.27025599987246,24.27025599987246,25.710942700039595,300,1,[1.4605631998274475],[1.4605792998336256],01,001,2024-11-09_13h03.57.924,IntentionalBindingTask,2024.1.5,None,2024-11-09 13h04.09.149740 +0530,
0.4,1000,exp,0,6,6,4,25.724301799898967,,25.712320499820635,25.724301799898967,26.724043499911204,26.724043499911204,26.724043499911204,27.177363299997523,space,0.44994279998354614,None,27.17817709990777,27.591549466659004,27.91013059997931,27.887153499992564,27.887307199882343,27.91013059997931,27.91013059997931,27.91013059997931,29.072571499971673,400,1,[1.182354599935934],[1.1823646000120789],01,001,2024-11-09_13h03.57.924,IntentionalBindingTask,2024.1.5,None,2024-11-09 13h04.09.149740 +0530,
0.1,1000,exp,0,7,7,9,29.088295199908316,,29.073553999885917,29.088295199908316,30.088269299827516,30.088269299827516,30.088269299827516,30.441120699979365,space,0.3508564999792725,None,30.442093699937686,30.55500036670516,30.879169299965724,30.857765699969605,30.85781309986487,30.879169299965724,30.879169299965724,30.879169299965724,32.072744000004604,300,1,[1.212034999858588],[1.2120473000686616],01,001,2024-11-09_13h03.57.924,IntentionalBindingTask,2024.1.5,None,2024-11-09 13h04.09.149740 +0530,
0.7,1000,exp,0,8,8,5,32.08538079983555,,32.07443049992435,32.08538079983555,33.08491709991358,33.08491709991358,33.08491709991358,33.38689600001089,space,0.29396729986183345,None,33.38776489999145,34.10095666657823,34.42199169984087,34.397382099879906,34.3974506999366,34.42199169984087,34.42199169984087,34.42199169984087,36.56525560002774,700,1,[2.1641468999441713],[2.164157100021839],01,001,2024-11-09_13h03.57.924,IntentionalBindingTask,2024.1.5,None,2024-11-09 13h04.09.149740 +0530,
0.4,400,unexp,0,9,9,1,36.58095659990795,,36.56666089990176,36.58095659990795,37.564314499963075,37.564314499963075,37.58175389980897,37.85057229991071,space,0.2707841000519693,None,37.85142039996572,38.26473676652337,38.59076389996335,38.56758869998157,38.567637800006196,38.59076389996335,38.59076389996335,38.59076389996335,39.92758199991658,200,1,[1.3579606998246163],[1.3579673999920487],01,001,2024-11-09_13h03.57.924,IntentionalBindingTask,2024.1.5,None,2024-11-09 13h04.09.149740 +0530,
0.1,400,unexp,0,10,10,0,39.94348190003075,,39.92819230002351,39.94348190003075,40.94269369984977,40.94269369984977,40.94269369984977,41.27936319983564,space,0.3213162000756711,None,41.28022299986333,41.39434696670311,41.71967909997329,41.697651099879295,41.697700900025666,41.71967909997329,41.71967909997329,41.71967909997329,42.86009299987927,300,1,[1.159690400119871],[1.1597039001062512],01,001,2024-11-09_13h03.57.924,IntentionalBindingTask,2024.1.5,None,2024-11-09 13h04.09.149740 +0530,
0.4,1000,exp,0,11,11,7,42.874982999870554,,42.861634499859065,42.874982999870554,43.8588204998523,43.8588204998523,43.876404999988154,44.2429237999022,space,0.38105349987745285,None,44.243475399911404,44.65935536666463,44.97868359996937,44.95756240002811,44.95761059992947,44.97868359996937,44.97868359996937,44.97868359996937,46.128528099972755,300,1,[1.1684073000214994],[1.1684243001509458],01,001,2024-11-09_13h03.57.924,IntentionalBindingTask,2024.1.5,None,2024-11-09 13h04.09.149740 +0530,
0.4,1000,exp,1,0,12,10,46.13984959991649,,46.13012869982049,46.13984959991649,47.139990399824455,47.139990399824455,47.1555323000066,47.840979899978265,space,0.6897005001083016,None,47.84181409981102,48.25528356648671,48.58209859998897,48.55769029981457,48.55775419995189,48.58209859998897,48.58209859998897,48.58209859998897,50.05297189997509,400,1,[1.4924071999266744],[1.492416099878028],01,001,2024-11-09_13h03.57.924,IntentionalBindingTask,2024.1.5,None,2024-11-09 13h04.09.149740 +0530,
0.7,1000,exp,1,1,13,8,50.067710699979216,,50.054033499909565,50.067710699979216,51.0678973000031,51.0678973000031,51.0678973000031,51.321214499883354,space,0.2431069000158459,None,51.32205229997635,52.035364766667286,52.360944599844515,52.337669499916956,52.337720999959856,52.360944599844515,52.360944599844515,52.360944599844515,53.259571299888194,200,1,[0.9191606999374926],[0.9191745999269187],01,001,2024-11-09_13h03.57.924,IntentionalBindingTask,2024.1.5,None,2024-11-09 13h04.09.149740 +0530,
0.7,1000,exp,1,2,14,11,53.267288899980485,,53.261455700034276,53.267288899980485,54.26593169989064,54.26593169989064,54.282616699812934,55.63312369980849,space,1.3506746001075953,None,55.63396559981629,56.34897156648027,56.67170810000971,56.64989859983325,56.64994419994764,56.67170810000971,56.67170810000971,56.67170810000971,57.91268599987961,200,1,[1.2602756000123918],[1.2602876001037657],01,001,2024-11-09_13h03.57.924,IntentionalBindingTask,2024.1.5,None,2024-11-09 13h04.09.149740 +0530,
0.4,1000,exp,1,3,15,4,57.9281768000219,,57.91369319986552,57.9281768000219,58.92834909982048,58.92834909982048,58.92834909982048,59.296855399850756,space,0.35093710012733936,None,59.297690799925476,59.7115270666002,60.03100459999405,60.00732969981618,60.00738099985756,60.03100459999405,60.03100459999405,60.03100459999405,61.19510050001554,200,1,[1.18436020007357],[1.1843726001679897],01,001,2024-11-09_13h03.57.924,IntentionalBindingTask,2024.1.5,None,2024-11-09 13h04.09.149740 +0530,
0.1,400,unexp,1,4,16,0,61.20775799988769,,61.19684530002996,61.20775799988769,62.208379899850115,62.208379899850115,62.208379899850115,62.6098195000086,space,0.39422550005838275,None,62.6107332999818,62.724416566609094,63.049069199943915,63.027384700020775,63.02743529994041,63.049069199943915,63.049069199943915,63.049069199943915,64.67318939999677,300,1,[1.6434397001285106],[1.6434498000890017],01,001,2024-11-09_13h03.57.924,IntentionalBindingTask,2024.1.5,None,2024-11-09 13h04.09.149740 +0530,
0.1,1000,exp,1,5,17,3,64.68918700003996,,64.67517760000192,64.68918700003996,65.68918929994106,65.68918929994106,65.68918929994106,66.27378699998371,space,0.5814594000112265,None,66.27475089998916,66.39024136664035,66.71477509988472,66.69127219985239,66.69131929986179,66.71477509988472,66.71477509988472,66.71477509988472,69.46806889981963,300,1,[2.7744223999325186],[2.7744340000208467],01,001,2024-11-09_13h03.57.924,IntentionalBindingTask,2024.1.5,None,2024-11-09 13h04.09.149740 +0530,
0.1,1000,exp,1,6,18,6,69.48358629993163,,69.46919059986249,69.48358629993163,70.48212979990058,70.48212979990058,70.48212979990058,70.79890369996428,space,0.3122463000472635,None,70.79954689997248,70.89877036662462,71.21460199984722,71.19657329982147,71.19660579995252,71.21460199984722,71.21460199984722,71.21460199984722,74.47982839983888,400,1,[3.2815723998937756],[3.2815817000810057],01,001,2024-11-09_13h03.57.924,IntentionalBindingTask,2024.1.5,None,2024-11-09 13h04.09.149740 +0530,
0.7,400,unexp,1,7,19,2,74.49563569994643,,74.48119520000182,74.49563569994643,75.47917039995082,75.47917039995082,75.49650179990567,75.7476011000108,space,0.25744950002990663,None,75.74846819997765,76.46120786649796,76.77890519984066,76.7570829000324,76.75712820002809,76.77890519984066,76.77890519984066,76.77890519984066,79.03127989987843,700,1,[2.2718844001647085],[2.2718909000977874],01,001,2024-11-09_13h03.57.924,IntentionalBindingTask,2024.1.5,None,2024-11-09 13h04.09.149740 +0530,
0.7,1000,exp,1,8,20,5,79.04083409998566,,79.03207589988597,79.04083409998566,80.04183849995025,80.04183849995025,80.05826759990305,80.29137049987912,space,0.23623609985224903,None,80.29216889990494,81.00622796669292,81.3201408998575,81.30672819982283,81.3067590999417,81.3201408998575,81.3201408998575,81.3201408998575,82.47871479997411,400,1,[1.1698940999340266],[1.1699069000314921],01,001,2024-11-09_13h03.57.924,IntentionalBindingTask,2024.1.5,None,2024-11-09 13h04.09.149740 +0530,
0.1,1000,exp,1,9,21,9,82.48726059985347,,82.47994679980911,82.48726059985347,83.48793770000339,83.48793770000339,83.48793770000339,83.82233539992012,space,0.32853260007686913,None,83.82323760003783,83.93770696648086,84.25978429988027,84.23690669983625,84.23695459985174,84.25978429988027,84.25978429988027,84.25978429988027,87.52105149999261,500,1,[3.2815459999255836],[3.281559699913487],01,001,2024-11-09_13h03.57.924,IntentionalBindingTask,2024.1.5,None,2024-11-09 13h04.09.149740 +0530,
0.4,1000,exp,1,10,22,7,87.53331730002537,,87.52246410003863,87.53331730002537,88.53290019999258,88.53290019999258,88.53290019999258,89.03563139983453,space,0.4971644999459386,None,89.0367425000295,89.44919786655034,89.77572789997794,89.74979269993491,89.74984929990023,89.77572789997794,89.77572789997794,89.77572789997794,92.49384159990586,500,1,[2.741229600040242],[2.741244000149891],01,001,2024-11-09_13h03.57.924,IntentionalBindingTask,2024.1.5,None,2024-11-09 13h04.09.149740 +0530,
0.4,400,unexp,1,11,23,1,92.5130759999156,,92.49559800000861,92.5130759999156,93.49495749990456,93.49495749990456,93.5284481998533,93.78002049983479,space,0.2715493000578135,None,93.78097239998169,94.19509836665044,,94.4970902998466,94.49716249993071,94.51912519987673,94.51912519987673,94.51912519987673,97.33583789994009,500,1,[2.835779500193894],[2.8357933000661433],01,001,2024-11-09_13h03.57.924,IntentionalBindingTask,2024.1.5,None,2024-11-09 13h04.09.149740 +0530,
0.1,1000,exp,2,0,24,3,97.34282589983195,,97.33733669994399,97.34282589983195,98.34055189997889,98.34055189997889,98.35729299997911,98.69148179981858,space,0.3376350998878479,None,98.69243809999898,98.80680766661341,99.13228080002591,99.10765729984269,99.1077027998399,99.13228080002591,99.13228080002591,99.13228080002591,100.85837959987111,400,1,[1.7481198001187295],[1.7481323999818414],01,001,2024-11-09_13h03.57.924,IntentionalBindingTask,2024.1.5,None,2024-11-09 13h04.09.149740 +0530,
0.1,1000,exp,2,1,25,6,100.87101929984055,,100.85976230003871,100.87101929984055,101.87015019985847,101.87015019985847,101.87015019985847,102.22148299985565,space,0.3375340001657605,None,102.22224429994822,102.33706366649518,102.65759089984931,102.6371235998813,102.63717679982074,102.65759089984931,102.65759089984931,102.65759089984931,104.91983459983021,300,1,[2.280145299853757],[2.2801584999542683],01,001,2024-11-09_13h03.57.924,IntentionalBindingTask,2024.1.5,None,2024-11-09 13h04.09.149740 +0530,
0.7,1000,exp,2,2,26,8,104.93416329985484,,104.9215921999421,104.93416329985484,105.93324369983748,105.93324369983748,105.93324369983748,106.30298019992188,space,0.36705030011944473,None,106.30384609987959,107.01505436661343,107.34062199993059,107.31715229991823,107.31719949981198,107.34062199993059,107.34062199993059,107.34062199993059,108.81035259994678,300,1,[1.4899603999219835],[1.4899808999616653],01,001,2024-11-09_13h03.57.924,IntentionalBindingTask,2024.1.5,None,2024-11-09 13h04.09.149740 +0530,
0.7,1000,exp,2,3,27,5,108.8192930999212,,108.81313019990921,108.8192930999212,109.81348449992947,109.81348449992947,109.82986579998396,110.23107199999504,space,0.4008384000044316,None,110.23202849994414,110.94409776648196,111.26913749985397,111.24723639991134,111.24728400004096,111.26913749985397,111.26913749985397,111.26913749985397,113.32987409993075,300,1,[2.079829099820927],[2.0798475998453796],01,001,2024-11-09_13h03.57.924,IntentionalBindingTask,2024.1.5,None,2024-11-09 13h04.09.149740 +0530,
0.7,1000,exp,2,4,28,11,113.34180339984596,,113.33203089982271,113.34180339984596,114.34189869998954,114.34189869998954,114.34189869998954,114.81034989980981,space,0.4517207001335919,None,114.8116818999406,115.52457566658656,115.84993459982798,115.82761619985104,115.82766459998675,115.84993459982798,115.84993459982798,115.84993459982798,120.80577189987525,700,1,[4.975511400029063],[4.975524599896744],01,001,2024-11-09_13h03.57.924,IntentionalBindingTask,2024.1.5,None,2024-11-09 13h04.09.149740 +0530,
0.4,400,unexp,2,5,29,1,120.81948779989034,,120.80766419996507,120.81948779989034,121.81894469982944,121.81894469982944,121.83516729995608,122.25287969992496,space,0.4186187998857349,None,122.25376489991322,122.66812926653462,122.98863399983384,122.96780749992467,122.96786860004067,122.98863399983384,122.98863399983384,122.98863399983384,124.34317899984308,500,1,[1.3727379001211375],[1.3727510999888182],01,001,2024-11-09_13h03.57.924,IntentionalBindingTask,2024.1.5,None,2024-11-09 13h04.09.149740 +0530,
0.1,400,unexp,2,6,30,0,124.3516440000385,,124.34551709983498,124.3516440000385,125.3489860999398,125.3489860999398,125.36522669997066,125.66682019992732,space,0.3106335001066327,None,125.66780799999833,125.78154386656048,126.10221339995041,126.07738929986954,126.07745219999924,126.10221339995041,126.10221339995041,126.10221339995041,127.71282369992696,300,1,[1.632380000082776],[1.6323891000356525],01,001,2024-11-09_13h03.57.924,IntentionalBindingTask,2024.1.5,None,2024-11-09 13h04.09.149740 +0530,
0.7,400,unexp,2,7,31,2,127.72894389997236,,127.71388349984773,127.72894389997236,128.72754649980925,128.72754649980925,128.74357789987698,128.99554999987595,space,0.2650373000651598,None,128.99626269983128,129.70954246662248,130.02405339991674,130.0071882000193,130.0073645999655,130.02405339991674,130.02405339991674,130.02405339991674,131.81345499982126,200,1,[1.8031492999289185],[1.8031909000128508],01,001,2024-11-09_13h03.57.924,IntentionalBindingTask,2024.1.5,None,2024-11-09 13h04.09.149740 +0530,
0.4,1000,exp,2,8,32,4,131.82577200001106,,131.8152644999791,131.82577200001106,132.82364439987577,132.82364439987577,132.83986499998719,133.14041939983144,space,0.30118250008672476,None,133.14089239994064,133.5408047666463,133.86608119984157,133.84174529998563,133.84178809984587,133.86608119984157,133.86608119984157,133.86608119984157,136.6180585999973,400,1,[2.77342540002428],[2.7734471999574453],01,001,2024-11-09_13h03.57.924,IntentionalBindingTask,2024.1.5,None,2024-11-09 13h04.09.149740 +0530,
0.4,1000,exp,2,9,33,7,136.63780969986692,,136.6195920999162,136.63780969986692,137.62081939983182,137.62081939983182,137.6371639999561,138.10561540001072,space,0.4718567000236362,None,138.10666539985687,138.5195588665704,138.84066529991105,138.818828899879,138.81888799997978,138.84066529991105,138.84066529991105,138.84066529991105,140.86814959999174,500,1,[2.047113499836996],[2.0471206998918205],01,001,2024-11-09_13h03.57.924,IntentionalBindingTask,2024.1.5,None,2024-11-09 13h04.09.149740 +0530,
0.1,1000,exp,2,10,34,9,140.88190399995074,,140.86875219992362,140.88190399995074,141.8663982998114,141.8663982998114,141.8829793999903,142.18490280001424,space,0.3044584998860955,None,142.1857175999321,142.29885046655934,142.61943129985593,142.5974057998974,142.59747159993276,142.61943129985593,142.61943129985593,142.61943129985593,144.47025069990195,500,1,[1.8694845999125391],[1.8695040000602603],01,001,2024-11-09_13h03.57.924,IntentionalBindingTask,2024.1.5,None,2024-11-09 13h04.09.149740 +0530,
0.4,1000,exp,2,11,35,10,144.4811405998189,,144.47221489995718,144.4811405998189,145.4796764999628,145.4796764999628,145.49667049990967,145.76435209996998,space,0.2736749998293817,None,145.7652831999585,146.18026396661688,146.5038448998239,146.48108719987795,146.4811312998645,146.5038448998239,146.5038448998239,146.5038448998239,150.09963129996322,300,1,[3.6156204999424517],[3.6156365999486297],01,001,2024-11-09_13h03.57.924,IntentionalBindingTask,2024.1.5,None,2024-11-09 13h04.09.149740 +0530,
0.4,400,unexp,3,0,36,1,150.1107632999774,,150.10121589992195,150.1107632999774,151.10835689981468,151.10835689981468,151.1247876000125,152.40862669982016,space,1.2832441998180002,None,152.4095119999256,152.82330046670202,153.14904139982536,153.1271535998676,153.1271980998572,153.14904139982536,153.14904139982536,153.14904139982536,155.00566589995287,200,1,[1.875884999986738],[1.875901099992916],01,001,2024-11-09_13h03.57.924,IntentionalBindingTask,2024.1.5,None,2024-11-09 13h04.09.149740 +0530,
0.7,1000,exp,3,1,37,5,155.02051509986632,,155.007441499969,155.02051509986632,156.0201495999936,156.0201495999936,156.0201495999936,156.40444159996696,space,0.3755230000242591,None,156.4052773998119,157.11914556665968,157.44396199984476,157.41711020004004,157.41727439989336,157.44396199984476,157.44396199984476,157.44396199984476,158.97802829998545,300,1,[1.556564599974081],[1.5565812999848276],01,001,2024-11-09_13h03.57.924,IntentionalBindingTask,2024.1.5,None,2024-11-09 13h04.09.149740 +0530,
0.7,400,unexp,3,2,38,2,158.9867471999023,,158.9805807999801,158.9867471999023,159.98282399983145,159.98282399983145,159.9997600999195,160.31766069983132,space,0.3194319000467658,None,160.3185413000174,161.0322778665616,161.3513453998603,161.32729459996335,161.32733649993315,161.3513453998603,161.3513453998603,161.3513453998603,162.69872260000557,300,1,[1.3689133999869227],[1.3689461001195014],01,001,2024-11-09_13h03.57.924,IntentionalBindingTask,2024.1.5,None,2024-11-09 13h04.09.149740 +0530,
0.7,1000,exp,3,3,39,8,162.7132949999068,,162.70002069999464,162.7132949999068,163.71270779985934,163.71270779985934,163.71270779985934,164.26384479994886,space,0.5343788999598473,None,164.26477389992215,164.97892756649915,165.3046299999114,165.28017399995588,165.2802168999333,165.3046299999114,165.3046299999114,165.3046299999114,166.30349099985324,400,1,[1.0206809001974761],[1.0206940001808107],01,001,2024-11-09_13h03.57.924,IntentionalBindingTask,2024.1.5,None,2024-11-09 13h04.09.149740 +0530,
0.4,1000,exp,3,4,40,10,166.3123925998807,,166.30628329981118,166.3123925998807,167.30929020000622,167.30929020000622,167.32595840003341,167.77880749991164,space,0.467178100021556,None,167.7800654999446,168.19248466665547,168.5105937998742,168.48728889995255,168.4873500999529,168.5105937998742,168.5105937998742,168.5105937998742,169.50963220000267,400,1,[1.0192199000157416],[1.0192342000082135],01,001,2024-11-09_13h03.57.924,IntentionalBindingTask,2024.1.5,None,2024-11-09 13h04.09.149740 +0530,
0.1,1000,exp,3,5,41,6,169.52382749994285,,169.5111427998636,169.52382749994285,170.5227895998396,170.5227895998396,170.5227895998396,170.80830869986676,space,0.2792739998549223,None,170.80914449994452,170.91526286659453,171.2398423999548,171.21727999998257,171.21732409996912,171.2398423999548,171.2398423999548,171.2398423999548,173.0063679998275,200,1,[1.78650729986839],[1.786518899956718],01,001,2024-11-09_13h03.57.924,IntentionalBindingTask,2024.1.5,None,2024-11-09 13h04.09.149740 +0530,
0.4,1000,exp,3,6,42,7,173.02051199995913,,173.00756169995293,173.02051199995913,174.01964049995877,174.01964049995877,174.01964049995877,174.30338579998352,space,0.2769344002008438,None,174.30418800003827,174.71899166662868,175.03787490003742,175.017197499983,175.01726290001534,175.03787490003742,175.03787490003742,175.03787490003742,176.43679659999907,200,1,[1.4162560000550002],[1.416272500064224],01,001,2024-11-09_13h03.57.924,IntentionalBindingTask,2024.1.5,None,2024-11-09 13h04.09.149740 +0530,
0.7,1000,exp,3,7,43,11,176.45101399999112,,176.43905769987032,176.45101399999112,177.45001959986985,177.45001959986985,177.4658131999895,177.80170009983703,space,0.34668130008503795,None,177.80257509998046,178.51578266668756,178.83708119997755,178.81790389982052,178.8179510999471,178.83708119997755,178.83708119997755,178.83708119997755,179.91571039985865,30,1,[1.0951389998663217],[1.0951513999607414],01,001,2024-11-09_13h03.57.924,IntentionalBindingTask,2024.1.5,None,2024-11-09 13h04.09.149740 +0530,
0.1,400,unexp,3,8,44,0,179.93048790004104,,179.91726249991916,179.93048790004104,180.93033350002952,180.93033350002952,180.93033350002952,181.61452990002,space,0.6744036001618952,None,181.61549689993262,181.729108066593,182.04891879996285,182.02732959995046,182.02737739984877,182.04891879996285,182.04891879996285,182.04891879996285,183.69642459996976,300,1,[1.6663903999142349],[1.666404499905184],01,001,2024-11-09_13h03.57.924,IntentionalBindingTask,2024.1.5,None,2024-11-09 13h04.09.149740 +0530,
0.1,1000,exp,3,9,45,9,183.7103529998567,,183.6978479998652,183.7103529998567,184.70979100000113,184.70979100000113,184.72748110000975,185.16072549996898,space,0.4328193999826908,None,185.16159699996933,185.27616976650123,185.59959579980932,185.5778850999195,185.57793599995784,185.59959579980932,185.59959579980932,185.59959579980932,187.32745580002666,500,1,[1.7465015999041498],[1.7465156998950988],01,001,2024-11-09_13h03.57.924,IntentionalBindingTask,2024.1.5,None,2024-11-09 13h04.09.149740 +0530,
0.1,1000,exp,3,10,46,3,187.3401981999632,,187.32932689995505,187.3401981999632,188.3399594000075,188.3399594000075,188.3399594000075,188.8056558999233,space,0.45067279995419085,None,188.80627729999833,188.92218836659256,189.23313970002346,189.21693479991518,189.2169691999443,189.23313970002346,189.23313970002346,189.23313970002346,190.4044816000387,500,1,[1.1858040001243353],[1.1858135999646038],01,001,2024-11-09_13h03.57.924,IntentionalBindingTask,2024.1.5,None,2024-11-09 13h04.09.149740 +0530,
0.4,1000,exp,3,11,47,4,190.41934060002677,,190.40552020003088,190.41934060002677,191.40376079990529,191.40376079990529,191.42011919990182,192.03811470000073,space,0.6173374000936747,None,192.03904499998316,192.4526589664786,192.770027999999,192.75282219983637,192.75284549989738,192.770027999999,192.770027999999,192.770027999999,194.61743459990248,300,1,[1.8630643000360578],[1.8630733999889344],01,001,2024-11-09_13h03.57.924,IntentionalBindingTask,2024.1.5,None,2024-11-09 13h04.09.149740 +0530,
0.1,400,unexp,4,0,48,0,194.63220210000873,,194.61831559985876,194.63220210000873,195.63285549986176,195.63285549986176,195.63285549986176,195.8666585998144,space,0.22669479995965958,None,195.86778740002774,195.98223456653457,196.29562389990315,196.27738419990055,196.27742769988254,196.29562389990315,196.29562389990315,196.29562389990315,199.71475119981915,400,1,[3.434358400059864],[3.4343739000614733],01,001,2024-11-09_13h03.57.924,IntentionalBindingTask,2024.1.5,None,2024-11-09 13h04.09.149740 +0530,
0.7,1000,exp,4,1,49,5,199.72949449997395,,199.71684809983708,199.72949449997395,200.7293517999351,200.7293517999351,200.74367380002514,201.11315759993158,space,0.379614399978891,None,201.11402500001714,201.8275109665158,202.14792019990273,202.127146899933,202.12719119992107,202.14792019990273,202.14792019990273,202.14792019990273,204.03851149999537,300,1,[1.908399400068447],[1.9084203999955207],01,001,2024-11-09_13h03.57.924,IntentionalBindingTask,2024.1.5,None,2024-11-09 13h04.09.149740 +0530,
0.1,1000,exp,4,2,50,6,204.05862369993702,,204.04034589999355,204.05862369993702,205.04043049993925,205.04043049993925,205.07438090001233,205.52592389984056,space,0.47907430003397167,None,205.52749040001072,205.64004216652054,205.96104079997167,205.93828219990246,205.93832940002903,205.96104079997167,205.96104079997167,205.96104079997167,208.19008089997806,200,1,[2.2483926001004875],[2.2484047999605536],01,001,2024-11-09_13h03.57.924,IntentionalBindingTask,2024.1.5,None,2024-11-09 13h04.09.149740 +0530,
0.4,400,unexp,4,3,51,1,208.20460009993985,,208.19174579996616,208.20460009993985,209.2038198998198,209.2038198998198,209.22028889996,209.32210320001468,space,0.11509470012970269,None,209.32297829980962,209.7368757664847,210.06063129985705,210.0373231000267,210.03737979987636,210.06063129985705,210.06063129985705,210.06063129985705,212.11256369994953,400,1,[2.072144699981436],[2.072167100152001],01,001,2024-11-09_13h03.57.924,IntentionalBindingTask,2024.1.5,None,2024-11-09 13h04.09.149740 +0530,
0.7,400,unexp,4,4,52,2,212.1220829000231,,212.1155989000108,212.1220829000231,213.11712009995244,213.11712009995244,213.13347149989568,213.40142559981905,space,0.28112049982883036,None,213.40234149992466,214.11591226660337,214.4410343999043,214.41753939981572,214.4175914998632,214.4410343999043,214.4410343999043,214.4410343999043,216.84835470002145,400,1,[2.4281468999106437],[2.428166399942711],01,001,2024-11-09_13h03.57.924,IntentionalBindingTask,2024.1.5,None,2024-11-09 13h04.09.149740 +0530,
0.4,1000,exp,4,5,53,4,216.86261079995893,,216.84979219990782,216.86261079995893,217.86306859995238,217.86306859995238,217.86306859995238,218.16433790000156,space,0.2864349000155926,None,218.16582849994302,218.57856076659326,218.90123840002343,218.87806909997016,218.8781147999689,218.90123840002343,218.90123840002343,218.90123840002343,220.77830989984795,300,1,[1.8967905999161303],[1.8968078999314457],01,001,2024-11-09_13h03.57.924,IntentionalBindingTask,2024.1.5,None,2024-11-09 13h04.09.149740 +0530,
0.1,1000,exp,4,6,54,3,220.7920527998358,,220.78018100000918,220.7920527998358,221.7900530998595,221.7900530998595,221.80636209994555,222.1240128998179,space,0.32257939991541207,None,222.12452739989385,222.23936276656266,222.55024529993534,222.5368133999873,222.53684549988247,222.55024529993534,222.55024529993534,222.55024529993534,224.49112579994835,300,1,[1.951321000000462],[1.9513356999959797],01,001,2024-11-09_13h03.57.924,IntentionalBindingTask,2024.1.5,None,2024-11-09 13h04.09.149740 +0530,
0.1,1000,exp,4,7,55,9,224.50589030003175,,224.49258369999006,224.50589030003175,225.50552339991555,225.50552339991555,225.50552339991555,225.9569093999453,space,0.4453202998265624,None,225.95772529998794,226.0719134666181,226.3985424998682,226.3729250000324,226.37297299993224,226.3985424998682,226.3985424998682,226.3985424998682,228.80306069995277,200,1,[2.4277411999646574],[2.427753899944946],01,001,2024-11-09_13h03.57.924,IntentionalBindingTask,2024.1.5,None,2024-11-09 13h04.09.149740 +0530,
0.7,1000,exp,4,8,56,8,228.81765399989672,,228.80432110000402,228.81765399989672,229.81813919986598,229.81813919986598,229.81813919986598,230.13595669995993,space,0.30152239999733865,None,230.13707119994797,230.8499438665497,231.17349569988437,231.14697079989128,231.1470299998764,231.17349569988437,231.17349569988437,231.17349569988437,232.70294349989854,200,1,[1.5537076999899],[1.5537267001345754],01,001,2024-11-09_13h03.57.924,IntentionalBindingTask,2024.1.5,None,2024-11-09 13h04.09.149740 +0530,
0.4,1000,exp,4,9,57,10,232.7163737998344,,232.70546430000104,232.7163737998344,233.71443359996192,233.71443359996192,233.73050799989142,234.1157821000088,space,0.3988891998305917,None,234.11721219983883,234.52998806658823,234.85186299984343,234.82736060000025,234.82740539987572,234.85186299984343,234.85186299984343,234.85186299984343,236.59767499985173,300,1,[1.7664872000459582],[1.7665088002104312],01,001,2024-11-09_13h03.57.924,IntentionalBindingTask,2024.1.5,None,2024-11-09 13h04.09.149740 +0530,
0.7,1000,exp,4,10,58,11,236.6113572998438,,236.59929399983957,236.6113572998438,237.61048100003973,237.61048100003973,237.61048100003973,238.86180839990266,space,1.2359910998493433,None,238.86289929994382,239.57531276654143,239.90079039987177,239.877586199902,239.8776386999525,239.90079039987177,239.90079039987177,239.90079039987177,241.9077929998748,400,1,[2.0275361000094563],[2.0275477000977844],01,001,2024-11-09_13h03.57.924,IntentionalBindingTask,2024.1.5,None,2024-11-09 13h04.09.149740 +0530,
0.4,1000,exp,4,11,59,7,241.9224270998966,,241.9090666999109,241.9224270998966,242.92285600001924,242.92285600001924,242.92285600001924,243.4745505999308,space,0.548661099979654,None,243.47551069990732,243.88756436651263,244.2086412999779,244.1883348999545,244.18837929982692,244.2086412999779,244.2086412999779,244.2086412999779,245.72215049993247,400,1,[1.5307981001678854],[1.5308121000416577],01,001,2024-11-09_13h03.57.924,IntentionalBindingTask,2024.1.5,None,2024-11-09 13h04.09.149740 +0530,
0.7,400,unexp,5,0,60,2,245.73668579990044,,245.72368489997461,245.73668579990044,246.735113899922,246.735113899922,246.75215710001066,247.10276609985158,space,0.3521231999620795,None,247.1037160998676,247.81953846669447,248.14316640002653,248.12032520002685,248.12036739988253,248.14316640002653,248.14316640002653,248.14316640002653,250.03141930000857,400,1,[1.9088109000585973],[1.908820299897343],01,001,2024-11-09_13h03.57.924,IntentionalBindingTask,2024.1.5,None,2024-11-09 13h04.09.149740 +0530,
0.1,1000,exp,5,1,61,9,250.0471059998963,,250.0330617998261,250.0471059998963,251.04731469997205,251.04731469997205,251.04731469997205,251.31607439997606,space,0.25968270003795624,None,251.31714639998972,251.43067726662073,251.75356819992885,251.72762519982643,251.7276855998207,251.75356819992885,251.75356819992885,251.75356819992885,254.53115689987317,300,1,[2.8003426999785006],[2.8003556998446584],01,001,2024-11-09_13h03.57.924,IntentionalBindingTask,2024.1.5,None,2024-11-09 13h04.09.149740 +0530,
0.4,400,unexp,5,2,62,1,254.54424869990908,,254.53257369995117,254.54424869990908,255.54375599999912,255.54375599999912,255.54375599999912,255.84622869989835,space,0.29496999992989004,None,255.84720900002867,256.25919306656965,256.5820361999795,256.55813249992207,256.5581781999208,256.5820361999795,256.5820361999795,256.5820361999795,258.20143769984134,300,1,[1.6405680000316352],[1.6405821999069303],01,001,2024-11-09_13h03.57.924,IntentionalBindingTask,2024.1.5,None,2024-11-09 13h04.09.149740 +0530,
0.7,1000,exp,5,3,63,11,258.21023519989103,,258.20401669992134,258.21023519989103,259.20759689994156,259.20759689994156,259.2238471999299,259.4421184998937,space,0.22941190004348755,None,259.44310279982165,260.1560868665731,260.47848229995,260.45729269995354,260.4573357999325,260.47848229995,260.47848229995,260.47848229995,263.5426633998286,300,1,[3.0823198000434786],[3.082331599900499],01,001,2024-11-09_13h03.57.924,IntentionalBindingTask,2024.1.5,None,2024-11-09 13h04.09.149740 +0530,
0.7,1000,exp,5,4,64,8,263.55276939994656,,263.5441556000151,263.55276939994656,264.55160699994303,264.55160699994303,264.55160699994303,265.10392239992507,space,0.5392048000358045,None,265.1051387998741,265.8175758666514,266.1408861000091,266.1177441999316,266.11779429996386,266.1408861000091,266.1408861000091,266.1408861000091,269.26543209981173,300,1,[3.1449631999712437],[3.144976699957624],01,001,2024-11-09_13h03.57.924,IntentionalBindingTask,2024.1.5,None,2024-11-09 13h04.09.149740 +0530,
0.1,400,unexp,5,5,65,0,269.28156239981763,,269.2671043998562,269.28156239981763,270.27984159998596,270.27984159998596,270.2968945999164,270.4646909998264,space,0.1785721001215279,None,270.46558279986493,270.5794961664981,270.8983301999979,270.877644199878,270.877836599946,270.8983301999979,270.8983301999979,270.8983301999979,276.2595267998986,700,1,[5.378643000032753],[5.378661400172859],01,001,2024-11-09_13h03.57.924,IntentionalBindingTask,2024.1.5,None,2024-11-09 13h04.09.149740 +0530,
0.1,1000,exp,5,6,66,6,276.2741796998307,,276.2610483998433,276.2741796998307,277.27423370000906,277.27423370000906,277.27423370000906,277.8080664000008,space,0.5170509000308812,None,277.8090718998574,277.92311716667996,278.2337879999541,278.2175639998168,278.2176077000331,278.2337879999541,278.2337879999541,278.2337879999541,281.8718387999106,300,1,[3.6522182000335306],[3.6522303998935968],01,001,2024-11-09_13h03.57.924,IntentionalBindingTask,2024.1.5,None,2024-11-09 13h04.09.149740 +0530,
0.4,1000,exp,5,7,67,7,281.88532999996096,,281.87385859992355,281.88532999996096,282.88472800003365,282.88472800003365,282.88472800003365,283.18764489982277,space,0.29619060014374554,None,283.18850339995697,283.60078846669444,283.91879729996435,283.89719779998995,283.89724299986847,283.91879729996435,283.91879729996435,283.91879729996435,286.7356193999294,300,1,[2.8353703999891877],[2.835383600089699],01,001,2024-11-09_13h03.57.924,IntentionalBindingTask,2024.1.5,None,2024-11-09 13h04.09.149740 +0530,
0.1,1000,exp,5,8,68,3,286.7485195999034,,286.73770309984684,286.7485195999034,287.7470040998887,287.7470040998887,287.7637483999133,288.01579969981685,space,0.25919469981454313,None,288.01696399995126,288.12967336649695,288.450435699895,288.42742770002224,288.42750729992986,288.450435699895,288.450435699895,288.450435699895,290.31361799989827,200,1,[1.8823786000721157],[1.8824028999079019],01,001,2024-11-09_13h03.57.924,IntentionalBindingTask,2024.1.5,None,2024-11-09 13h04.09.149740 +0530,
0.4,1000,exp,5,9,69,10,290.3281417998951,,290.315798799973,290.3281417998951,291.3268525998574,291.3268525998574,291.3435886998195,291.67796969995834,space,0.33509909990243614,None,291.67892570002005,292.09316496650376,292.4190715998411,292.39738349989057,292.3974651999306,292.4190715998411,292.4190715998411,292.4190715998411,293.4477772000246,300,1,[1.0475338001269847],[1.0475481001194566],01,001,2024-11-09_13h03.57.924,IntentionalBindingTask,2024.1.5,None,2024-11-09 13h04.09.149740 +0530,
0.7,1000,exp,5,10,70,5,293.45745490002446,,293.44922589999624,293.45745490002446,294.4572937998455,294.4572937998455,294.4572937998455,294.8932743999176,space,0.43364929989911616,None,294.8942292998545,295.60643556650416,295.93074939982034,295.90725319995545,295.90729839983396,295.93074939982034,295.93074939982034,295.93074939982034,297.19515659986064,300,1,[1.2851643001195043],[1.2851887999568135],01,001,2024-11-09_13h03.57.924,IntentionalBindingTask,2024.1.5,None,2024-11-09 13h04.09.149740 +0530,
0.4,1000,exp,5,11,71,4,297.2053042999469,,297.19752339995466,297.2053042999469,298.2041372999083,298.2041372999083,298.2205325998366,298.538835400017,space,0.3253615000285208,None,298.53982689999975,298.9531779667052,299.2703624998685,299.2475468998309,299.24759059981443,299.2703624998685,299.2703624998685,299.2703624998685,300.4780729999766,300,1,[1.2277113001327962],[1.227725600125268],01,001,2024-11-09_13h03.57.924,IntentionalBindingTask,2024.1.5,None,2024-11-09 13h04.09.149740 +0530,
0.7,1000,exp,6,0,72,5,300.4858669999521,,300.4801904000342,300.4858669999521,301.48432879988104,301.48432879988104,301.50058949994855,301.80271540000103,space,0.30120520014315844,None,301.8037474998273,302.5164920665013,302.8397360998206,302.8172257998958,302.81726899999194,302.8397360998206,302.8397360998206,302.8397360998206,306.6881166000385,300,1,[3.868292500032112],[3.868312899954617],01,001,2024-11-09_13h03.57.924,IntentionalBindingTask,2024.1.5,None,2024-11-09 13h04.09.149740 +0530,
0.1,400,unexp,6,1,73,0,306.69740749988705,,306.68989329994656,306.69740749988705,307.6952585999388,307.6952585999388,307.71175240003504,308.3301396998577,space,0.628411800134927,None,308.33106729993597,308.4441848665631,308.77238769992255,308.7495963999536,308.74961930001155,308.77238769992255,308.77238769992255,308.77238769992255,313.2560786998365,500,1,[4.505016800016165],[4.50502509996295],01,001,2024-11-09_13h03.57.924,IntentionalBindingTask,2024.1.5,None,2024-11-09 13h04.09.149740 +0530,
0.4,1000,exp,6,2,74,10,313.27122879982926,,313.2576512999367,313.27122879982926,314.25600829999894,314.25600829999894,314.27121229982004,314.9067909999285,space,0.6423229000065476,None,314.9078830999788,315.32317036652626,315.6499108998105,315.62721870001405,315.62730559986085,315.6499108998105,315.6499108998105,315.6499108998105,317.493445900036,200,1,[1.8632104999851435],[1.8632241000887007],01,001,2024-11-09_13h03.57.924,IntentionalBindingTask,2024.1.5,None,2024-11-09 13h04.09.149740 +0530,
0.1,1000,exp,6,3,75,6,317.5045028999448,,317.4957643998787,317.5045028999448,318.5016685000155,318.5016685000155,318.5191489998251,318.987234500004,space,0.4797398999799043,None,318.9880802000407,319.1006366667027,319.42336019990034,319.3973614999559,319.3974229998421,319.42336019990034,319.42336019990034,319.42336019990034,321.35092459991574,400,1,[1.9501110999844968],[1.9501235000789165],01,001,2024-11-09_13h03.57.924,IntentionalBindingTask,2024.1.5,None,2024-11-09 13h04.09.149740 +0530,
0.4,400,unexp,6,4,76,1,321.3647633998189,,321.3522860999219,321.3647633998189,322.3645209998358,322.3645209998358,322.3645209998358,324.71488370001316,space,2.337563300039619,None,324.7157542000059,325.12872236670614,325.4518041999545,325.4276636999566,325.4277995999437,325.4518041999545,325.4518041999545,325.4518041999545,327.448832700029,500,1,[2.0185280998703092],[2.0185674999374896],01,001,2024-11-09_13h03.57.924,IntentionalBindingTask,2024.1.5,None,2024-11-09 13h04.09.149740 +0530,
0.1,1000,exp,6,5,77,9,327.4599664998241,,327.45083769992925,327.4599664998241,328.45920179993846,328.45920179993846,328.4759943999816,328.84382409998216,space,0.3813098999671638,None,328.8449651999399,328.9586795666876,329.27944680000655,329.25819740002044,329.258247599937,329.27944680000655,329.27944680000655,329.27944680000655,331.1018254000228,400,1,[1.8405289999209344],[1.8405470000579953],01,001,2024-11-09_13h03.57.924,IntentionalBindingTask,2024.1.5,None,2024-11-09 13h04.09.149740 +0530,
0.7,400,unexp,6,6,78,2,331.1101681999862,,331.10423729987815,331.1101681999862,332.1056325000245,332.1056325000245,332.1221566000022,332.2904437999241,space,0.17329089995473623,None,332.2917539998889,333.00500146655054,333.3352760998532,333.3075256999582,333.3075846999418,333.3352760998532,333.3352760998532,333.3352760998532,336.66935049998574,500,1,[3.35908169997856],[3.359094699844718],01,001,2024-11-09_13h03.57.924,IntentionalBindingTask,2024.1.5,None,2024-11-09 13h04.09.149740 +0530,
0.4,1000,exp,6,7,79,4,336.68423220003024,,336.6707424998749,336.68423220003024,337.68431489984505,337.68431489984505,337.68431489984505,338.1353712999262,space,0.448815600015223,None,338.13651679991744,338.54953786667124,338.8683672999032,338.84716070001014,338.84724729997106,338.8683672999032,338.8683672999032,338.8683672999032,341.10517550003715,500,1,[2.2545606000348926],[2.25457219989039],01,001,2024-11-09_13h03.57.924,IntentionalBindingTask,2024.1.5,None,2024-11-09 13h04.09.149740 +0530,
0.1,1000,exp,6,8,80,3,341.1138516999781,,341.1073048999533,341.1138516999781,342.1138676998671,342.1138676998671,342.1138676998671,342.3984154998325,space,0.28255799994803965,None,342.3993193998467,342.51278346666754,342.8402254998218,342.81703709997237,342.8170853999909,342.8402254998218,342.8402254998218,342.8402254998218,344.5722713000141,300,1,[1.752028299961239],[1.7520520999096334],01,001,2024-11-09_13h03.57.924,IntentionalBindingTask,2024.1.5,None,2024-11-09 13h04.09.149740 +0530,
0.7,1000,exp,6,9,81,8,344.5819009998813,,344.57511899992824,344.5819009998813,345.57621539989486,345.57621539989486,345.5928234998137,345.87892469996586,space,0.29876879998482764,None,345.8800492999144,346.59248586657145,346.91238989983685,346.88725010002963,346.88729349989444,346.91238989983685,346.91238989983685,346.91238989983685,348.5243357999716,500,1,[1.6341127001214772],[1.6341223001945764],01,001,2024-11-09_13h03.57.924,IntentionalBindingTask,2024.1.5,None,2024-11-09 13h04.09.149740 +0530,
0.4,1000,exp,6,10,82,7,348.5386148998514,,348.5258696000092,348.5386148998514,349.5394943000283,349.5394943000283,349.5394943000283,350.10812600003555,space,0.5616035000421107,None,350.10895049991086,350.5216941666479,350.84170620003715,350.8173165998887,350.8173722999636,350.84170620003715,350.84170620003715,350.84170620003715,353.02379539981484,400,1,[2.2028959998860955],[2.202923199860379],01,001,2024-11-09_13h03.57.924,IntentionalBindingTask,2024.1.5,None,2024-11-09 13h04.09.149740 +0530,
0.7,1000,exp,6,11,83,11,353.0351122999564,,353.02516689989716,353.0351122999564,354.0351318998728,354.0351318998728,354.0351318998728,354.40361859998666,space,0.36529020010493696,None,354.40458179987036,355.11807936669015,355.4463068000041,355.4189650998451,355.4190110999625,355.4463068000041,355.4463068000041,355.4463068000041,358.16917709982954,400,1,[2.7471479000523686],[2.747163400053978],01,001,2024-11-09_13h03.57.924,IntentionalBindingTask,2024.1.5,None,2024-11-09 13h04.09.149740 +0530,
0.7,400,unexp,7,0,84,2,358.1820379998535,,358.1711682998575,358.1820379998535,359.180171799846,359.180171799846,359.19701679982245,359.64845580002293,space,0.45599839999340475,None,359.64934799983166,360.3623268665435,360.68302470003255,360.65975659992546,360.6598210998345,360.68302470003255,360.68302470003255,360.68302470003255,363.97882519988343,700,1,[3.315720699960366],[3.315736100077629],01,001,2024-11-09_13h03.57.924,IntentionalBindingTask,2024.1.5,None,2024-11-09 13h04.09.149740 +0530,
0.4,1000,exp,7,1,85,7,363.99181009992026,,363.98068749997765,363.99181009992026,364.9910505998414,364.9910505998414,364.9910505998414,365.39280539983884,space,0.38702749996446073,None,365.39381369994953,365.80805256666304,366.13041469990276,366.10752209997736,366.1075722000096,366.13041469990276,366.13041469990276,366.13041469990276,368.03273019986227,300,1,[1.922485299874097],[1.922501599881798],01,001,2024-11-09_13h03.57.924,IntentionalBindingTask,2024.1.5,None,2024-11-09 13h04.09.149740 +0530,
0.1,1000,exp,7,2,86,9,368.0403387998231,,368.03425859985873,368.0403387998231,369.0366982999258,369.0366982999258,369.0533216998447,369.5534426998347,space,0.5113731999881566,None,369.55428169993684,369.66875056649246,369.99220469989814,369.96713559981436,369.96719440002926,369.99220469989814,369.99220469989814,369.99220469989814,371.95567399985157,400,1,[1.9848176999948919],[1.9848313999827951],01,001,2024-11-09_13h03.57.924,IntentionalBindingTask,2024.1.5,None,2024-11-09 13h04.09.149740 +0530,
0.4,400,unexp,7,3,87,1,371.9680901998654,,371.9575775000267,371.9680901998654,372.9653833999764,372.9653833999764,372.98281809990294,373.40055729984306,space,0.4330146999564022,None,373.4010834998917,373.8165536665513,374.13972269999795,374.11697719991207,374.1170210998971,374.13972269999795,374.13972269999795,374.13972269999795,375.3244791999459,300,1,[1.205022000009194],[1.2050356999970973],01,001,2024-11-09_13h03.57.924,IntentionalBindingTask,2024.1.5,None,2024-11-09 13h04.09.149740 +0530,
0.1,400,unexp,7,4,88,0,375.33330269996077,,375.3268325999379,375.33330269996077,376.33100240002386,376.33100240002386,376.34755029994994,376.75060679996386,space,0.4085524999536574,None,376.75154179986566,376.8634707665226,377.1920203999616,377.16719299997203,377.16723919985816,377.1920203999616,377.1920203999616,377.1920203999616,378.5791182999965,300,1,[1.4094261000864208],[1.4094403001945466],01,001,2024-11-09_13h03.57.924,IntentionalBindingTask,2024.1.5,None,2024-11-09 13h04.09.149740 +0530,
0.7,1000,exp,7,5,89,5,378.5951825999655,,378.5807776998263,378.5951825999655,379.59457439999096,379.59457439999096,379.59457439999096,379.9623002000153,space,0.35237850015982985,None,379.96322699985467,380.67683456658074,380.9997296000365,380.9772038999945,380.9772612999659,380.9997296000365,380.9997296000365,380.9997296000365,382.59440569998696,300,1,[1.6147696000989527],[1.61478290008381],01,001,2024-11-09_13h03.57.924,IntentionalBindingTask,2024.1.5,None,2024-11-09 13h04.09.149740 +0530,
0.4,1000,exp,7,6,90,4,382.60761259985156,,382.59583320003003,382.60761259985156,383.6074208000209,383.6074208000209,383.6074208000209,384.19173859991133,space,0.5669011999852955,None,384.1926193998661,384.60679866659143,384.92701129987836,384.9069115999155,384.9069562999066,384.92701129987836,384.92701129987836,384.92701129987836,386.64030739990994,300,1,[1.7308247000910342],[1.7308370000682771],01,001,2024-11-09_13h03.57.924,IntentionalBindingTask,2024.1.5,None,2024-11-09 13h04.09.149740 +0530,
0.7,1000,exp,7,7,91,8,386.6545893999282,,386.6418085999321,386.6545893999282,387.6534962998703,387.6534962998703,387.67014189995825,388.18844419997185,space,0.5235124998725951,None,388.1892677999567,388.9025019666335,389.2176645998843,389.19712050003,389.1971876998432,389.2176645998843,389.2176645998843,389.2176645998843,390.5189213999547,300,1,[1.3179782000370324],[1.3179964001756161],01,001,2024-11-09_13h03.57.924,IntentionalBindingTask,2024.1.5,None,2024-11-09 13h04.09.149740 +0530,
0.4,1000,exp,7,8,92,10,390.5339631999377,,390.5203451998532,390.5339631999377,391.53389479988255,391.53389479988255,391.53389479988255,391.91791329998523,space,0.3691557999700308,None,391.9194795000367,392.3328002666278,392.64832199993543,392.6275374998804,392.6275841000024,392.64832199993543,392.64832199993543,392.64832199993543,394.38580599986017,300,1,[1.7559847000520676],[1.7560032000765204],01,001,2024-11-09_13h03.57.924,IntentionalBindingTask,2024.1.5,None,2024-11-09 13h04.09.149740 +0530,
0.1,1000,exp,7,9,93,3,394.39675479987636,,394.3877550000325,394.39675479987636,395.3966449999716,395.3966449999716,395.3966449999716,396.24759159982204,space,0.8472130999434739,None,396.2484004998114,396.36238446651646,396.6784273998346,396.65693859988824,396.6569727000315,396.6784273998346,396.6784273998346,396.6784273998346,398.1951227998361,300,1,[1.534944700077176],[1.5349568000528961],01,001,2024-11-09_13h03.57.924,IntentionalBindingTask,2024.1.5,None,2024-11-09 13h04.09.149740 +0530,
0.1,1000,exp,7,10,94,6,398.2096261999104,,398.1968055998441,398.2096261999104,399.20961909997277,399.20961909997277,399.20961909997277,399.49421129981056,space,0.276738400105387,None,399.4952590998728,399.60973616649085,399.93197029992007,399.90836669993587,399.9084151999559,399.93197029992007,399.93197029992007,399.93197029992007,402.5119515999686,300,1,[2.6008586999960244],[2.6008730998728424],01,001,2024-11-09_13h03.57.924,IntentionalBindingTask,2024.1.5,None,2024-11-09 13h04.09.149740 +0530,
0.7,1000,exp,7,11,95,11,402.5229002998676,,402.5140885999426,402.5229002998676,403.52158359996974,403.52158359996974,403.52158359996974,403.69122829986736,space,0.15608790004625916,None,403.6922793998383,404.4044776666599,404.7304928000085,404.70719839981757,404.7072449999396,404.7304928000085,404.7304928000085,404.7304928000085,406.1545145998243,300,1,[1.4446634000632912],[1.4446835999842733],01,001,2024-11-09_13h03.57.924,IntentionalBindingTask,2024.1.5,None,2024-11-09 13h04.09.149740 +0530,
0.4,1000,exp,8,0,96,7,406.1697237000335,,406.15679569984786,406.1697237000335,407.1691471999511,407.1691471999511,407.1691471999511,407.4213517999742,space,0.24581120000220835,None,407.4223080999218,407.8352149665045,408.160991899902,408.1374778000172,408.13752739992924,408.160991899902,408.160991899902,408.160991899902,409.668631099863,300,1,[1.5281950000207871],[1.5282085000071675],01,001,2024-11-09_13h03.57.924,IntentionalBindingTask,2024.1.5,None,2024-11-09 13h04.09.149740 +0530,
0.1,1000,exp,8,1,97,3,409.68233409989625,,409.67079779994674,409.68233409989625,410.68228389997967,410.68228389997967,410.68228389997967,411.00087949982844,space,0.3152238999027759,None,411.00183809990995,411.11512086663083,411.4415414999239,411.4178180999588,411.4178691999987,411.4415414999239,411.4415414999239,411.4415414999239,413.5331518999301,300,1,[2.11282779998146],[2.112844099989161],01,001,2024-11-09_13h03.57.924,IntentionalBindingTask,2024.1.5,None,2024-11-09 13h04.09.149740 +0530,
0.1,1000,exp,8,2,98,9,413.5456883998122,,413.53448239993304,413.5456883998122,414.54557599988766,414.54557599988766,414.54557599988766,415.4797106999904,space,0.9224888000171632,None,415.4806802000385,415.59419406654,415.91898719989695,415.8976702999789,415.89772100001574,415.91898719989695,415.91898719989695,415.91898719989695,417.67053049989045,300,1,[1.769864099798724],[1.7698851998429745],01,001,2024-11-09_13h03.57.924,IntentionalBindingTask,2024.1.5,None,2024-11-09 13h04.09.149740 +0530,
0.7,1000,exp,8,3,99,8,417.6788945000153,,417.6727809999138,417.6788945000153,418.67593739996664,418.67593739996664,418.6926380000077,418.9925632998347,space,0.3082726998254657,None,418.9935111999512,419.70764776651436,420.03462829999626,420.00859129987657,420.00863119983114,420.03462829999626,420.03462829999626,420.03462829999626,421.6571053999942,300,1,[1.645661000162363],[1.645673600025475],01,001,2024-11-09_13h03.57.924,IntentionalBindingTask,2024.1.5,None,2024-11-09 13h04.09.149740 +0530,
0.1,400,unexp,8,4,100,0,421.67138009984046,,421.6587765000295,421.67138009984046,422.67081409995444,422.67081409995444,422.67081409995444,423.0562558998354,space,0.3800333000253886,None,423.05736569990404,423.17107216647514,423.4898140998557,423.46717939991504,423.46722440002486,423.4898140998557,423.4898140998557,423.4898140998557,425.8898938000202,400,1,[2.419363700086251],[2.4193768000695854],01,001,2024-11-09_13h03.57.924,IntentionalBindingTask,2024.1.5,None,2024-11-09 13h04.09.149740 +0530,
0.1,1000,exp,8,5,101,6,425.90124219981954,,425.8913516998291,425.90124219981954,426.9004635999445,426.9004635999445,426.91838069981895,427.7180686998181,space,0.8028025000821799,None,427.71900749998167,427.8328634666434,428.1597376000136,428.1373411999084,428.13738540001214,428.1597376000136,428.1597376000136,428.1597376000136,430.84842039993964,300,1,[2.7085810999851674],[2.708598400000483],01,001,2024-11-09_13h03.57.924,IntentionalBindingTask,2024.1.5,None,2024-11-09 13h04.09.149740 +0530,
0.7,400,unexp,8,6,102,2,430.86151989991777,,430.8494129998144,430.86151989991777,431.86169689986855,431.86169689986855,431.86169689986855,432.18068989994936,space,0.3108110998291522,None,432.18210019986145,432.8937670665948,433.2096153998282,433.1968518998474,433.19687989982776,433.2096153998282,433.2096153998282,433.2096153998282,435.05278749996796,300,1,[1.8541149999946356],[1.8541280999779701],01,001,2024-11-09_13h03.57.924,IntentionalBindingTask,2024.1.5,None,2024-11-09 13h04.09.149740 +0530,
0.7,1000,exp,8,7,103,11,435.0611552998889,,435.0549153999891,435.0611552998889,436.0584616998676,436.0584616998676,436.0754078999162,436.6928273998201,space,0.6280394000932574,None,436.6936474998947,437.4071368666521,437.73062329995446,437.7069331998937,437.70698009990156,437.73062329995446,437.73062329995446,437.73062329995446,439.2913893000223,300,1,[1.5816446000244468],[1.581660300027579],01,001,2024-11-09_13h03.57.924,IntentionalBindingTask,2024.1.5,None,2024-11-09 13h04.09.149740 +0530,
0.4,400,unexp,8,8,104,1,439.3054922998417,,439.29370989999734,439.3054922998417,440.3043872998096,440.3043872998096,440.3043872998096,440.60589040000923,space,0.28658710001036525,None,440.60700279986486,441.00720366655537,441.33472489984706,441.3085479999427,441.3085933998227,441.33472489984706,441.33472489984706,441.33472489984706,442.77825039997697,300,1,[1.4666878001298755],[1.4667112999595702],01,001,2024-11-09_13h03.57.924,IntentionalBindingTask,2024.1.5,None,2024-11-09 13h04.09.149740 +0530,
0.4,1000,exp,8,9,105,10,442.78803909989074,,442.7810962998774,442.78803909989074,443.7844107998535,443.7844107998535,443.8013619999401,444.1526479998138,space,0.3643094999715686,None,444.15353549993597,444.5672648666116,444.8886174999643,444.86718079983257,444.86726109986193,444.8886174999643,444.8886174999643,444.8886174999643,446.61939219990745,300,1,[1.7494862000457942],[1.7495091001037508],01,001,2024-11-09_13h03.57.924,IntentionalBindingTask,2024.1.5,None,2024-11-09 13h04.09.149740 +0530,
0.4,1000,exp,8,10,106,4,446.6317588998936,,446.62083169980906,446.6317588998936,447.6311122998595,447.6311122998595,447.6311122998595,448.1488493999932,space,0.5072072001639754,None,448.14988799998537,448.56401776668304,,448.86741369985975,448.8674605998676,448.88912059995346,448.88912059995346,448.88912059995346,450.2817293999251,300,1,[1.4113809999544173],[1.4113962000701576],01,001,2024-11-09_13h03.57.924,IntentionalBindingTask,2024.1.5,None,2024-11-09 13h04.09.149740 +0530,
0.7,1000,exp,8,11,107,5,450.29499779990874,,450.2840910998639,450.29499779990874,451.29415409988724,451.29415409988724,451.29415409988724,451.79631190001965,space,0.4984289000276476,None,451.7975546999369,452.5102811665895,452.8366317998152,452.81105539994314,452.81113769998774,452.8366317998152,452.8366317998152,452.8366317998152,454.35813679988496,300,1,[1.5442714001983404],[1.5442817001603544],01,001,2024-11-09_13h03.57.924,IntentionalBindingTask,2024.1.5,None,2024-11-09 13h04.09.149740 +0530,
0.7,1000,exp,9,0,108,8,454.37506709992886,,454.35949489986524,454.37506709992886,455.3573107998818,455.3573107998818,455.3900623000227,455.675492499955,space,0.31506970012560487,None,455.676654699957,456.3894870666011,456.7103987999726,456.68815830000676,456.68822639994323,456.7103987999726,456.7103987999726,456.7103987999726,458.3481332999654,300,1,[1.656674100086093],[1.6566908000968397],01,001,2024-11-09_13h03.57.924,IntentionalBindingTask,2024.1.5,None,2024-11-09 13h04.09.149740 +0530,
0.7,1000,exp,9,1,109,5,458.3567353999242,,458.35035720001906,458.3567353999242,459.35389659996144,459.35389659996144,459.36990189994685,459.720565199852,space,0.3639771998859942,None,459.72147909994237,460.4360685665781,460.76129269995727,460.73753990000114,460.73758960003033,460.76129269995727,460.76129269995727,460.76129269995727,463.3842356998939,400,1,[2.6443457999266684],[2.6443576999008656],01,001,2024-11-09_13h03.57.924,IntentionalBindingTask,2024.1.5,None,2024-11-09 13h04.09.149740 +0530,
0.4,1000,exp,9,2,110,10,463.3988611998502,,463.38560839998536,463.3988611998502,464.3989593000151,464.3989593000151,464.3989593000151,464.467793099815,space,0.06172050000168383,None,464.4687071000226,464.8818553665808,465.20167470001616,465.1773110998329,465.17737799999304,465.20167470001616,465.20167470001616,465.20167470001616,466.3060239998158,200,1,[1.1254066000692546],[1.1254204001743346],01,001,2024-11-09_13h03.57.924,IntentionalBindingTask,2024.1.5,None,2024-11-09 13h04.09.149740 +0530,
0.1,1000,exp,9,3,111,3,466.315400299849,,466.30851599993184,466.315400299849,467.31280849990435,467.31280849990435,467.330061199842,467.6982195000164,space,0.37914280011318624,None,467.6990957998205,467.8122895665622,468.13366119982675,468.10736120003276,468.10742249991745,468.13366119982675,468.13366119982675,468.13366119982675,469.53001099987887,200,1,[1.4189986002165824],[1.4190126000903547],01,001,2024-11-09_13h03.57.924,IntentionalBindingTask,2024.1.5,None,2024-11-09 13h04.09.149740 +0530,
0.1,1000,exp,9,4,112,6,469.5432331999764,,469.5313508999534,469.5432331999764,470.542857500026,470.542857500026,470.542857500026,470.94299509981647,space,0.39522890001535416,None,470.9434513000306,471.0426402665364,471.3624322998803,471.33716270001605,471.33720619999804,471.3624322998803,471.3624322998803,471.3624322998803,472.8922553998418,200,1,[1.551901799859479],[1.551915599964559],01,001,2024-11-09_13h03.57.924,IntentionalBindingTask,2024.1.5,None,2024-11-09 13h04.09.149740 +0530,
0.4,400,unexp,9,5,113,1,472.9068535999395,,472.8941428998951,472.9068535999395,473.90657410002314,473.90657410002314,473.90657410002314,474.20775239984505,space,0.29356869985349476,None,474.20889439992607,474.62219596660384,474.93854360003024,474.91689440002665,474.9169502998702,474.93854360003024,474.93854360003024,474.93854360003024,479.32006810000166,500,1,[4.3996186999138445],[4.399631499778479],01,001,2024-11-09_13h03.57.924,IntentionalBindingTask,2024.1.5,None,2024-11-09 13h04.09.149740 +0530,
0.7,1000,exp,9,6,114,11,479.3340151999146,,479.3213729998097,479.3340151999146,480.33384529990144,480.33384529990144,480.33384529990144,480.8345530999359,space,0.4911175000015646,None,480.8354750999715,481.54993576655784,481.8698515999131,481.85077469982207,481.8508168000262,481.8698515999131,481.8698515999131,481.8698515999131,483.0998336998746,400,1,[1.2464243001304567],[1.2464388001244515],01,001,2024-11-09_13h03.57.924,IntentionalBindingTask,2024.1.5,None,2024-11-09 13h04.09.149740 +0530,
0.1,400,unexp,9,7,115,0,483.11407299991697,,483.1013236998115,483.11407299991697,484.11431650002487,484.11431650002487,484.11431650002487,484.39909359999,space,0.2809375999495387,None,484.40025929990225,484.5135933666645,484.83911779988557,484.8177502998151,484.8177970999386,484.83911779988557,484.83911779988557,484.83911779988557,486.2977976000402,400,1,[1.4773860999848694],[1.4773985999636352],01,001,2024-11-09_13h03.57.924,IntentionalBindingTask,2024.1.5,None,2024-11-09 13h04.09.149740 +0530,
0.4,1000,exp,9,8,116,7,486.31116409995593,,486.2997232999187,486.31116409995593,487.31086810003035,487.31086810003035,487.32722839992493,487.4458661999088,space,0.12834789999760687,None,487.44713300000876,487.84650236653783,488.1719276998192,488.1476397998631,488.1476808998268,488.1719276998192,488.1719276998192,488.1719276998192,489.77465639985166,300,1,[1.625155899906531],[1.6251654999796301],01,001,2024-11-09_13h03.57.924,IntentionalBindingTask,2024.1.5,None,2024-11-09 13h04.09.149740 +0530,
0.4,1000,exp,9,9,117,4,489.7897754998412,,489.77578919986263,489.7897754998412,490.78866519988514,490.78866519988514,490.8056516998913,491.6922014998272,space,0.8959423000924289,None,491.69317690003663,492.10618496669144,,492.40684389998205,492.40691090002656,492.4189828999806,492.4189828999806,492.4189828999806,493.7418163998518,300,1,[1.3326997000258416],[1.332713000010699],01,001,2024-11-09_13h03.57.924,IntentionalBindingTask,2024.1.5,None,2024-11-09 13h04.09.149740 +0530,
0.1,1000,exp,9,10,118,9,493.75435759988613,,493.7430636000354,493.75435759988613,494.7539190999232,494.7539190999232,494.7539190999232,495.0549233998172,space,0.28720850008539855,None,495.0558733998332,495.16987326654294,495.4918927999679,495.4682239999529,495.4682787999045,495.4918927999679,495.4918927999679,495.4918927999679,497.1125339998398,400,1,[1.6411458000075072],[1.6411572000943124],01,001,2024-11-09_13h03.57.924,IntentionalBindingTask,2024.1.5,None,2024-11-09 13h04.09.149740 +0530,
0.7,400,unexp,9,11,119,2,497.1210823999718,,497.11512889992446,497.1210823999718,498.1172117998358,498.1172117998358,498.13441960001364,498.78478049999103,space,0.6550757000222802,None,498.78557449998334,499.49950406660014,499.8203035998158,499.7980043999851,499.79806109983474,499.8203035998158,499.8203035998158,499.8203035998158,503.19775859988295,600,1,[3.3971883999183774],[3.3972056000493467],01,001,2024-11-09_13h03.57.924,IntentionalBindingTask,2024.1.5,None,2024-11-09 13h04.09.149740 +0530,
0.4,1000,exp,10,0,120,4,503.21174449985847,,503.1992699999828,503.21174449985847,504.211579099996,504.211579099996,504.211579099996,504.56288819992915,space,0.3349874000996351,None,504.5639443998225,504.97758446663306,505.30037019983865,505.2786160998512,505.27866029995494,505.30037019983865,505.30037019983865,505.30037019983865,506.96226249984466,300,1,[1.6809024999383837],[1.680916199926287],01,001,2024-11-09_13h03.57.924,IntentionalBindingTask,2024.1.5,None,2024-11-09 13h04.09.149740 +0530,
0.1,1000,exp,10,1,121,6,506.9745326999109,,506.9639026999939,506.9745326999109,507.97483969992027,507.97483969992027,507.97483969992027,508.32582679996267,space,0.3383162999525666,None,508.32692050002515,508.4409983666303,508.76187379984185,508.7379262999166,508.73798460001126,508.76187379984185,508.76187379984185,508.76187379984185,510.0106077999808,200,1,[1.2687211001757532],[1.2687409999780357],01,001,2024-11-09_13h03.57.924,IntentionalBindingTask,2024.1.5,None,2024-11-09 13h04.09.149740 +0530,
0.4,1000,exp,10,2,122,7,510.02337109996006,,510.0128490999341,510.02337109996006,511.02094809990376,511.02094809990376,511.0385861999821,511.3071953000035,space,0.2753453999757767,None,511.3081271999981,511.7211288666042,512.0420674998313,512.0171415999066,512.017187600024,512.0420674998313,512.0420674998313,512.0420674998313,513.2718681998085,300,1,[1.2516844000201672],[1.251694899983704],01,001,2024-11-09_13h03.57.924,IntentionalBindingTask,2024.1.5,None,2024-11-09 13h04.09.149740 +0530,
0.7,1000,exp,10,3,123,11,513.2851247999351,,513.2729906998575,513.2851247999351,514.2853443999775,514.2853443999775,514.2853443999775,514.5707052999642,space,0.28329649986699224,None,514.5716585000046,515.2865553666527,515.6120275999419,515.5877606000286,515.5877977998462,515.6120275999419,515.6120275999419,515.6120275999419,517.0024129999802,500,1,[1.4120773999020457],[1.4120939997956157],01,001,2024-11-09_13h03.57.924,IntentionalBindingTask,2024.1.5,None,2024-11-09 13h04.09.149740 +0530,
0.4,400,unexp,10,4,124,1,517.0168742998503,,517.0041870998684,517.0168742998503,518.0151751998346,518.0151751998346,518.0151751998346,518.3660182999447,space,0.34280139999464154,None,518.3671413999982,518.7811227664972,519.1057428999338,519.0819559998345,519.0819973000325,519.1057428999338,519.1057428999338,519.1057428999338,521.5749686998315,300,1,[2.4901505999732763],[2.4901701000053436],01,001,2024-11-09_13h03.57.924,IntentionalBindingTask,2024.1.5,None,2024-11-09 13h04.09.149740 +0530,
0.1,1000,exp,10,5,125,3,521.5955399998929,,521.5767391000409,521.5955399998929,522.575749799842,522.575749799842,522.608950200025,522.7459630998783,space,0.15689999982714653,None,522.7469963999465,522.8606398665036,523.1815357999876,523.1575193000026,523.1575858998112,523.1815357999876,523.1815357999876,523.1815357999876,524.4113608999178,300,1,[1.2502111999783665],[1.2502248999662697],01,001,2024-11-09_13h03.57.924,IntentionalBindingTask,2024.1.5,None,2024-11-09 13h04.09.149740 +0530,
0.7,1000,exp,10,6,126,5,524.424981799908,,524.4127662000246,524.424981799908,525.4258002999704,525.4258002999704,525.4258002999704,525.7767185999546,space,0.34804260008968413,None,525.7775747999549,526.4911061665664,526.8112540999427,526.7875614999793,526.7876085999887,526.8112540999427,526.8112540999427,526.8112540999427,528.0747328000143,300,1,[1.2838330999948084],[1.283848199993372],01,001,2024-11-09_13h03.57.924,IntentionalBindingTask,2024.1.5,None,2024-11-09 13h04.09.149740 +0530,
0.7,400,unexp,10,7,127,2,528.0889482998755,,528.0762157998979,528.0889482998755,529.0885013998486,529.0885013998486,529.0885013998486,529.5400880998932,space,0.4439704001415521,None,529.5410370999016,530.2533447666249,530.5818751000334,530.5574397000019,530.557498899987,530.5818751000334,530.5818751000334,530.5818751000334,532.9049074999057,200,1,[2.344888900173828],[2.344903000164777],01,001,2024-11-09_13h03.57.924,IntentionalBindingTask,2024.1.5,None,2024-11-09 13h04.09.149740 +0530,
0.7,1000,exp,10,8,128,8,532.9182203998789,,532.9066375999246,532.9182203998789,533.9165061998647,533.9165061998647,533.9337185998447,534.3848411999643,space,0.4599190999288112,None,534.3861177000217,535.0995851664959,535.4218198999297,535.3974329999182,535.3975804999936,535.4218198999297,535.4218198999297,535.4218198999297,539.8065321999602,400,1,[4.405438699992374],[4.405453700106591],01,001,2024-11-09_13h03.57.924,IntentionalBindingTask,2024.1.5,None,2024-11-09 13h04.09.149740 +0530,
0.1,400,unexp,10,9,129,0,539.8145316999871,,539.8090192000382,539.8145316999871,540.8107637998182,540.8107637998182,540.8276176999789,541.9116779000033,space,1.0904078998137265,None,541.9125806000084,542.0264993666826,542.3512777998112,542.3271595998667,542.3272251999006,542.3512777998112,542.3512777998112,542.3512777998112,547.0637206998654,300,1,[4.733525899937376],[4.733541599940509],01,001,2024-11-09_13h03.57.924,IntentionalBindingTask,2024.1.5,None,2024-11-09 13h04.09.149740 +0530,
0.4,1000,exp,10,10,130,10,547.071944499854,,547.0656524000224,547.071944499854,548.0708206000272,548.0708206000272,548.0870659998618,548.3228582998272,space,0.236560600111261,None,548.3237729000393,548.7348661665494,549.0509305999149,549.0370622999035,549.0370926999021,549.0509305999149,549.0509305999149,549.0509305999149,550.3680424999911,200,1,[1.3292676999699324],[1.3292761000338942],01,001,2024-11-09_13h03.57.924,IntentionalBindingTask,2024.1.5,None,2024-11-09 13h04.09.149740 +0530,
0.1,1000,exp,10,11,131,9,550.3833471999969,,550.3689009998925,550.3833471999969,551.383241500007,551.383241500007,551.3999962999951,551.7020933998283,space,0.3129203000571579,None,551.7030248998199,551.8175258665035,552.1397068998776,552.1168785998598,552.1169226998463,552.1397068998776,552.1397068998776,552.1397068998776,556.663777000038,300,1,[4.544165099970996],[4.544179199961945],01,001,2024-11-09_13h03.57.924,IntentionalBindingTask,2024.1.5,None,2024-11-09 13h04.09.149740 +0530,
0.7,1000,exp,11,0,132,5,556.6798743999097,,556.6657254998572,556.6798743999097,557.6795292999595,557.6795292999595,557.6795292999595,558.5134272000287,space,0.816880299942568,None,558.5143289000262,559.2267689665935,559.5503173000179,559.5275249998085,559.5275860000402,559.5503173000179,559.5503173000179,559.5503173000179,561.6350208998192,500,1,[2.10441070003435],[2.104425200028345],01,001,2024-11-09_13h03.57.924,IntentionalBindingTask,2024.1.5,None,2024-11-09 13h04.09.149740 +0530,
0.4,400,unexp,11,1,133,1,561.6438390000258,,561.6377583998255,561.6438390000258,562.6401181998663,562.6401181998663,562.6401181998663,563.1084998999722,space,0.4652418999467045,None,563.109639500035,563.5224377664892,563.8486009999178,563.8270372999832,563.8270804998465,563.8486009999178,563.8486009999178,563.8486009999178,568.1393325999379,500,1,[4.309541600057855],[4.309560400201008],01,001,2024-11-09_13h03.57.924,IntentionalBindingTask,2024.1.5,None,2024-11-09 13h04.09.149740 +0530,
0.1,1000,exp,11,2,134,6,568.1512891999446,,568.1410048999824,568.1512891999446,569.1503467999864,569.1503467999864,569.1503467999864,569.5191389999818,space,0.3534661000594497,None,569.5204302000348,569.6342667665488,569.9610419999808,569.9371330998838,569.9371765998658,569.9610419999808,569.9610419999808,569.9610419999808,571.4418391999789,500,1,[1.5023141000419855],[1.5023248000070453],01,001,2024-11-09_13h03.57.924,IntentionalBindingTask,2024.1.5,None,2024-11-09 13h04.09.149740 +0530,
0.1,400,unexp,11,3,135,0,571.4498495999724,,571.4435343998484,571.4498495999724,572.4481897999067,572.4481897999067,572.464540099958,573.0663248000201,space,0.6003660000860691,None,573.0674314999487,573.1804070666587,573.5023258000147,573.4769425999839,573.4769847998396,573.5023258000147,573.5023258000147,573.5023258000147,574.8655576999299,200,1,[1.3849349000956863],[1.384955600136891],01,001,2024-11-09_13h03.57.924,IntentionalBindingTask,2024.1.5,None,2024-11-09 13h04.09.149740 +0530,
0.7,400,unexp,11,4,136,2,574.878240399994,,574.867795499973,574.878240399994,575.8781274999492,575.8781274999492,575.8781274999492,576.2300134999678,space,0.33827099995687604,None,576.2309470998589,576.9437288665833,577.270013100002,577.2472449999768,577.247294300003,577.270013100002,577.270013100002,577.270013100002,579.7902921999339,300,1,[2.5407098999712616],[2.5407172001432627],01,001,2024-11-09_13h03.57.924,IntentionalBindingTask,2024.1.5,None,2024-11-09 13h04.09.149740 +0530,
0.7,1000,exp,11,5,137,11,579.8056355000008,,579.7909425999969,579.8056355000008,580.7910105998162,580.7910105998162,580.8068130998872,581.124640399823,space,0.3238206999376416,None,581.1256142000202,581.8395275665137,582.1665882999077,582.1405864998233,582.1406445999164,582.1665882999077,582.1665882999077,582.1665882999077,585.3822343999054,500,1,[3.2388591000344604],[3.2388792999554425],01,001,2024-11-09_13h03.57.924,IntentionalBindingTask,2024.1.5,None,2024-11-09 13h04.09.149740 +0530,
0.4,1000,exp,11,6,138,7,585.4022420998663,,585.3836667998694,585.4022420998663,586.3846728999633,586.3846728999633,586.4016390999313,586.7361057000235,space,0.3443521000444889,None,586.7373799998313,587.1512558665747,587.4785103998147,587.4523340999149,587.4523757998832,587.4785103998147,587.4785103998147,587.4785103998147,589.4406234000344,500,1,[1.9854230999480933],[1.985435500042513],01,001,2024-11-09_13h03.57.924,IntentionalBindingTask,2024.1.5,None,2024-11-09 13h04.09.149740 +0530,
0.4,1000,exp,11,7,139,4,589.450573500013,,589.4425545998383,589.450573500013,590.4479943998158,590.4479943998158,590.4639504000079,591.9830887999851,space,1.5289884000085294,None,591.9840207998641,592.3960641665074,592.7207934998441,592.6970997999888,592.6971429998521,592.7207934998441,592.7207934998441,592.7207934998441,596.8609777998645,400,1,[4.161285700043663],[4.161298600025475],01,001,2024-11-09_13h03.57.924,IntentionalBindingTask,2024.1.5,None,2024-11-09 13h04.09.149740 +0530,
0.1,1000,exp,11,8,140,3,596.8742590998299,,596.8625801999588,596.8742590998299,597.87396599981,597.87396599981,597.87396599981,598.2261697999202,space,0.3498615000862628,None,598.2273891998921,598.3398943665127,598.6619420999195,598.6372330999002,598.6372878998518,598.6619420999195,598.6619420999195,598.6619420999195,600.6390437998343,400,1,[1.998202299932018],[1.9982152997981757],01,001,2024-11-09_13h03.57.924,IntentionalBindingTask,2024.1.5,None,2024-11-09 13h04.09.149740 +0530,
0.1,1000,exp,11,9,141,9,600.6537947999313,,600.6404434998985,600.6537947999313,601.6537859998643,601.6537859998643,601.6537859998643,602.1223214999773,space,0.46576059982180595,None,602.1231122999452,602.2375747666849,602.5603024999145,602.5375828000251,602.5376242999919,602.5603024999145,602.5603024999145,602.5603024999145,604.7039472998586,300,1,[2.164221700048074],[2.1642336000222713],01,001,2024-11-09_13h03.57.924,IntentionalBindingTask,2024.1.5,None,2024-11-09 13h04.09.149740 +0530,
0.4,1000,exp,11,10,142,10,604.7179186998401,,604.7057454998139,604.7179186998401,605.7146854000166,605.7146854000166,605.7308594998904,606.0515797999687,space,0.3201417999807745,None,606.0524360998534,606.4662341667029,606.7894400998484,606.7674075998366,606.7674944999162,606.7894400998484,606.7894400998484,606.7894400998484,609.3620505998842,300,1,[2.592078600078821],[2.59208959992975],01,001,2024-11-09_13h03.57.924,IntentionalBindingTask,2024.1.5,None,2024-11-09 13h04.09.149740 +0530,
0.7,1000,exp,11,11,143,8,609.378508699825,,609.363037499832,609.378508699825,610.3773959998507,610.3773959998507,610.3946240998339,610.9448186999653,space,0.5552996001206338,None,610.9454439999536,611.6457095666012,,611.9474887000397,611.9475561999716,611.9696539998986,611.9696539998986,611.9696539998986,614.1909494998399,200,1,[2.2408286998979747],[2.240834799828008],01,001,2024-11-09_13h03.57.924,IntentionalBindingTask,2024.1.5,None,2024-11-09 13h04.09.149740 +0530,
0.7,400,unexp,12,0,144,2,614.2087199999951,,614.1915302998386,614.2087199999951,615.1909305998124,615.1909305998124,615.224399499828,615.7259070998989,space,0.5217939000576735,None,615.7269772998989,616.4406735664854,616.765596000012,616.7411876998376,616.7412445999216,616.765596000012,616.765596000012,616.765596000012,618.4917562999763,700,1,[1.7479231001343578],[1.7479384001344442],01,001,2024-11-09_13h03.57.924,IntentionalBindingTask,2024.1.5,None,2024-11-09 13h04.09.149740 +0530,
0.1,1000,exp,12,1,145,6,618.5042981000151,,618.4934672999661,618.5042981000151,619.5044880998321,619.5044880998321,619.5044880998321,619.8551645998377,space,0.33642999990843236,None,619.8559932999779,619.970593266484,620.2937878998928,620.2673624998424,620.267433400033,620.2937878998928,620.2937878998928,620.2937878998928,621.7856640999671,500,1,[1.5149209001101553],[1.514932000078261],01,001,2024-11-09_13h03.57.924,IntentionalBindingTask,2024.1.5,None,2024-11-09 13h04.09.149740 +0530,
0.7,1000,exp,12,2,146,8,621.8009897999,,621.7875260999426,621.8009897999,622.7840040998999,622.7840040998999,622.8006165998522,623.2365510000382,space,0.440415000077337,None,623.2375766998157,623.9496181666075,624.2720904999878,624.2473402000032,624.2474213000387,624.2720904999878,624.2720904999878,624.2720904999878,626.0562531999312,400,1,[1.805343999993056],[1.8053566000889987],01,001,2024-11-09_13h03.57.924,IntentionalBindingTask,2024.1.5,None,2024-11-09 13h04.09.149740 +0530,
0.4,1000,exp,12,3,147,4,626.0655260998756,,626.0580012998544,626.0655260998756,627.0638694998343,627.0638694998343,627.0805575998966,627.2149193999358,space,0.14652860001660883,None,627.2157658999786,627.629103966585,627.9538254998624,627.9270442000125,627.9270850999746,627.9538254998624,627.9538254998624,627.9538254998624,628.7311632998753,300,1,[0.800649399869144],[0.8006600998342037],01,001,2024-11-09_13h03.57.924,IntentionalBindingTask,2024.1.5,None,2024-11-09 13h04.09.149740 +0530,
0.7,1000,exp,12,4,148,5,628.7435872999486,,628.7325033999514,628.7435872999486,629.7445202998351,629.7445202998351,629.7445202998351,630.078843700001,space,0.32009959989227355,None,630.0797729999758,630.7931401665012,631.1204178000335,631.0971742998809,631.0972262998112,631.1204178000335,631.1204178000335,631.1204178000335,631.9836014998145,300,1,[0.8830308001488447],[0.883075000019744],01,001,2024-11-09_13h03.57.924,IntentionalBindingTask,2024.1.5,None,2024-11-09 13h04.09.149740 +0530,
0.4,1000,exp,12,5,149,7,631.9926789999008,,631.9850751999766,631.9926789999008,632.9912284000311,632.9912284000311,633.008555999957,633.226089600008,space,0.23143430007621646,None,633.2272065998986,633.6427951665285,633.9716005998198,633.948113600025,633.948158999905,633.9716005998198,633.9716005998198,633.9716005998198,636.8006861000322,300,1,[2.849413499934599],[2.8494326998479664],01,001,2024-11-09_13h03.57.924,IntentionalBindingTask,2024.1.5,None,2024-11-09 13h04.09.149740 +0530,
0.7,1000,exp,12,6,150,11,636.8090029999148,,636.8038541998249,636.8090029999148,637.8034640999977,637.8034640999977,637.8203845999669,638.2048639999703,space,0.3895221999846399,None,638.2057306999341,638.9190403666037,639.2412698999979,639.2184363999404,639.2184965999331,639.2412698999979,639.2412698999979,639.2412698999979,643.5032259,500,1,[4.282191900070757],[4.282204499933869],01,001,2024-11-09_13h03.57.924,IntentionalBindingTask,2024.1.5,None,2024-11-09 13h04.09.149740 +0530,
0.1,1000,exp,12,7,151,3,643.5148888998665,,643.5050398998428,643.5148888998665,644.5135619000066,644.5135619000066,644.5135619000066,644.5660400998313,space,0.048687800066545606,None,644.5674009998329,644.6801753666407,645.0011436999775,644.9772652999964,644.9773271000013,645.0011436999775,645.0011436999775,645.0011436999775,648.3068054998294,200,1,[3.325901599833742],[3.325918599963188],01,001,2024-11-09_13h03.57.924,IntentionalBindingTask,2024.1.5,None,2024-11-09 13h04.09.149740 +0530,
0.4,1000,exp,12,8,152,10,648.3265458999667,,648.3081894000061,648.3265458999667,649.3090603998862,649.3090603998862,649.3257128000259,649.3944625998847,space,0.08349179988726974,None,649.3955308999866,649.8092197667031,650.1298509999178,650.1073968999553,650.1074818000197,650.1298509999178,650.1298509999178,650.1298509999178,652.2256739998702,300,1,[2.1157210001256317],[2.1157333999872208],01,001,2024-11-09_13h03.57.924,IntentionalBindingTask,2024.1.5,None,2024-11-09 13h04.09.149740 +0530,
0.4,400,unexp,12,9,153,1,652.2395456000231,,652.2273050998338,652.2395456000231,653.2397723000031,653.2397723000031,653.2397723000031,653.5744427000172,space,0.3323070998303592,None,653.5752661998849,653.9880248665033,654.3101398998406,654.2879619000014,654.2880118000321,654.3101398998406,654.3101398998406,654.3101398998406,656.2321363999508,300,1,[1.9412699001841247],[1.9412881000898778],01,001,2024-11-09_13h03.57.924,IntentionalBindingTask,2024.1.5,None,2024-11-09 13h04.09.149740 +0530,
0.1,400,unexp,12,10,154,0,656.2527717999183,,656.2338443000335,656.2527717999183,657.2351247998886,657.2351247998886,657.2518944998737,657.537174299825,space,0.29235000000335276,None,657.5379833998159,657.6515339664804,657.9713375999127,657.9477321999148,657.9477874999866,657.9713375999127,657.9713375999127,657.9713375999127,659.3855836000293,300,1,[1.434501999989152],[1.4345164999831468],01,001,2024-11-09_13h03.57.924,IntentionalBindingTask,2024.1.5,None,2024-11-09 13h04.09.149740 +0530,
0.1,1000,exp,12,11,155,9,659.4004283999093,,659.387911999831,659.4004283999093,660.3995538998861,660.3995538998861,660.4158924999647,660.6833098998759,space,0.2788490999955684,None,660.6841223000083,660.7833846666074,661.1159152998589,661.0905628998298,661.0906460999977,661.1159152998589,661.1159152998589,661.1159152998589,662.75307169999,200,1,[1.659732700092718],[1.6597603999543935],01,001,2024-11-09_13h03.57.924,IntentionalBindingTask,2024.1.5,None,2024-11-09 13h04.09.149740 +0530,
0.1,1000,exp,13,0,156,6,662.764145199908,,662.754883099813,662.764145199908,663.7624396998435,663.7624396998435,663.7624396998435,664.0484217999037,space,0.2803385001607239,None,664.0499169998802,664.162557366599,664.4826982000377,664.4574299999513,664.4574965999927,664.4826982000377,664.4826982000377,664.4826982000377,665.7521022998262,200,1,[1.2914052000269294],[1.2914258998353034],01,001,2024-11-09_13h03.57.924,IntentionalBindingTask,2024.1.5,None,2024-11-09 13h04.09.149740 +0530,
0.7,1000,exp,13,1,157,8,665.761094099842,,665.7535937000066,665.761094099842,666.7599110000301,666.7599110000301,666.7762103998102,666.9781033999752,space,0.20642079995013773,None,666.9793057998177,667.6927833664852,668.0122845999431,667.98830550001,667.9883636999875,668.0122845999431,668.0122845999431,668.0122845999431,669.1073910000268,500,1,[1.1158547999802977],[1.1158656000625342],01,001,2024-11-09_13h03.57.924,IntentionalBindingTask,2024.1.5,None,2024-11-09 13h04.09.149740 +0530,
0.7,1000,exp,13,2,158,5,669.1228928999044,,669.108509299811,669.1228928999044,670.1214375998825,670.1214375998825,670.1383613999933,670.455917299958,space,0.3236837999429554,None,670.4562877998687,671.1719571666947,671.4911493000109,671.4670843998902,671.4671292998828,671.4911493000109,671.4911493000109,671.4911493000109,672.4534441998694,400,1,[0.9843435001093894],[0.9843498000409454],01,001,2024-11-09_13h03.57.924,IntentionalBindingTask,2024.1.5,None,2024-11-09 13h04.09.149740 +0530,
0.4,1000,exp,13,3,159,7,672.4689074000344,,672.454095199937,672.4689074000344,673.453308600001,673.453308600001,673.4702141999733,673.9381621000357,space,0.4695232000667602,None,673.9390300000086,674.3524259667067,674.670563200023,674.6480158998165,674.6480617998168,674.670563200023,674.670563200023,674.670563200023,676.7857629000209,300,1,[2.1351427000481635],[2.135155600029975],01,001,2024-11-09_13h03.57.924,IntentionalBindingTask,2024.1.5,None,2024-11-09 13h04.09.149740 +0530,
0.4,1000,exp,13,4,160,10,676.7990085999481,,676.7878113000188,676.7990085999481,677.8021398999263,677.8021398999263,677.8021398999263,678.0683184999507,space,0.2630037001799792,None,678.0692848998588,678.4822792665257,678.7997089999262,678.7775522999,678.7776031999383,678.7997089999262,678.7997089999262,678.7997089999262,680.2622940000147,300,1,[1.4826255000662059],[1.4826308998744935],01,001,2024-11-09_13h03.57.924,IntentionalBindingTask,2024.1.5,None,2024-11-09 13h04.09.149740 +0530,
0.7,1000,exp,13,5,161,11,680.278647299856,,680.2632660998497,680.278647299856,681.2627348999958,681.2627348999958,681.2800956999417,681.6311089999508,space,0.36080530006438494,None,681.6319432000164,682.3453645664888,682.6713572000153,682.647651599953,682.6476959998254,682.6713572000153,682.6713572000153,682.6713572000153,684.0426370999776,200,1,[1.3924863000866026],[1.3924950000364333],01,001,2024-11-09_13h03.57.924,IntentionalBindingTask,2024.1.5,None,2024-11-09 13h04.09.149740 +0530,
0.4,400,unexp,13,6,162,1,684.0580360998865,,684.0436138999648,684.0580360998865,685.0422714999877,685.0422714999877,685.0598337999545,685.3280611999799,space,0.28088709991425276,None,685.3290142999031,685.7410741665556,686.0726360999979,686.0382605998311,686.03832469997,686.0726360999979,686.0726360999979,686.0726360999979,687.7286769000348,500,1,[1.6866466999053955],[1.6866607000119984],01,001,2024-11-09_13h03.57.924,IntentionalBindingTask,2024.1.5,None,2024-11-09 13h04.09.149740 +0530,
0.1,400,unexp,13,7,163,0,687.7407020998653,,687.7305310999509,687.7407020998653,688.739074499812,688.739074499812,688.756428899942,689.0420096998569,space,0.28927740012295544,None,689.0429642000236,689.1556391665401,689.4825601000339,689.4577426000033,689.4577972998377,689.4825601000339,689.4825601000339,689.4825601000339,690.5403636998963,400,1,[1.0798304001800716],[1.0798435001634061],01,001,2024-11-09_13h03.57.924,IntentionalBindingTask,2024.1.5,None,2024-11-09 13h04.09.149740 +0530,
0.7,400,unexp,13,8,164,2,690.5537401998881,,690.5420603998937,690.5537401998881,691.5532739998307,691.5532739998307,691.5532739998307,691.9213137999177,space,0.365424299845472,None,691.9222458999138,692.6358399666535,692.9619767998811,692.9374153998215,692.9374581999145,692.9619767998811,692.9619767998811,692.9619767998811,695.693939599907,700,1,[2.7527916999533772],[2.752807900076732],01,001,2024-11-09_13h03.57.924,IntentionalBindingTask,2024.1.5,None,2024-11-09 13h04.09.149740 +0530,
0.1,1000,exp,13,9,165,9,695.7015702000353,,695.6956943999976,695.7015702000353,696.6987645998597,696.6987645998597,696.7155957999639,704.3759115999565,space,7.6635463000275195,None,704.3772821000312,704.4918444664838,704.8165293999482,704.7927774998825,704.7928204999771,704.8165293999482,704.8165293999482,704.8165293999482,707.1050962998997,300,1,[2.3099070000462234],[2.309918199898675],01,001,2024-11-09_13h03.57.924,IntentionalBindingTask,2024.1.5,None,2024-11-09 13h04.09.149740 +0530,
0.1,1000,exp,13,10,166,3,707.1220696000382,,707.1069717998616,707.1220696000382,708.1205517000053,708.1205517000053,708.1382159998175,708.5229106999468,space,0.3959225001744926,None,708.5237306000199,708.6374679664771,708.9599424998742,708.9371871999465,708.9372331998311,708.9599424998742,708.9599424998742,708.9599424998742,710.8354634998832,400,1,[1.895678099943325],[1.8956885000225157],01,001,2024-11-09_13h03.57.924,IntentionalBindingTask,2024.1.5,None,2024-11-09 13h04.09.149740 +0530,
0.4,1000,exp,13,11,167,4,710.8508859998547,,710.8369404999539,710.8508859998547,711.8508537998423,711.8508537998423,711.8659559998196,712.1666273998562,space,0.3075753999873996,None,712.1671651999932,712.5820086666538,712.8996798999142,712.876986599993,712.8770428998396,712.8996798999142,712.8996798999142,712.8996798999142,715.6986229999457,500,1,[2.818742899922654],[2.8187597999349236],01,001,2024-11-09_13h03.57.924,IntentionalBindingTask,2024.1.5,None,2024-11-09 13h04.09.149740 +0530,
0.7,1000,exp,14,0,168,5,715.7131790998392,,715.7000049999915,715.7131790998392,716.7130336000118,716.7130336000118,716.7130336000118,717.0645911998581,space,0.3420095001347363,None,717.0655129998922,717.7782974665208,718.1027353999671,718.0783071999904,718.0783539998811,718.1027353999671,718.1027353999671,718.1027353999671,720.2111692999024,300 ,1,[2.130345799960196],[2.1303567001596093],01,001,2024-11-09_13h03.57.924,IntentionalBindingTask,2024.1.5,None,2024-11-09 13h04.09.149740 +0530,
0.1,1000,exp,14,1,169,3,720.2267880998552,,720.2128232999239,720.2267880998552,721.2264204998501,721.2264204998501,721.2264204998501,721.744035199983,space,0.5050847001839429,None,721.7449677998666,721.8589258664908,722.1805612999015,722.1580421000253,722.1583398999646,722.1805612999015,722.1805612999015,722.1805612999015,724.6454700999893,300,1,[2.4841702000703663],[2.4841799999121577],01,001,2024-11-09_13h03.57.924,IntentionalBindingTask,2024.1.5,None,2024-11-09 13h04.09.149740 +0530,
0.4,1000,exp,14,2,170,4,724.6545404000208,,724.6467010998167,724.6545404000208,725.6547752998304,725.6547752998304,725.6547752998304,725.9906754000112,space,0.330549499951303,None,725.9915574998595,726.4037763665585,726.7309522000141,726.7074157998431,726.7074598998297,726.7309522000141,726.7309522000141,726.7309522000141,727.9388358998112,400,1,[1.2287628999911249],[1.2287766998633742],01,001,2024-11-09_13h03.57.924,IntentionalBindingTask,2024.1.5,None,2024-11-09 13h04.09.149740 +0530,
0.4,1000,exp,14,3,171,7,727.9535081998911,,727.940636199899,727.9535081998911,728.9504668000154,728.9504668000154,728.9668349998537,729.46694199997,space,0.507410499965772,None,729.46743469988,729.8824270666266,730.1996367999818,730.1827525999397,730.182779799914,730.1996367999818,730.1996367999818,730.1996367999818,732.2689202998299,500,1,[2.0841548000462353],[2.084167600143701],01,001,2024-11-09_13h03.57.924,IntentionalBindingTask,2024.1.5,None,2024-11-09 13h04.09.149740 +0530,
0.7,1000,exp,14,4,172,8,732.2817537998781,,732.2704824998509,732.2817537998781,733.2795754999388,733.2795754999388,733.2957048998214,733.563026299933,space,0.2714850001502782,None,733.5633612999227,734.2778142665668,734.604389199987,734.5780277999584,734.5780926998705,734.604389199987,734.604389199987,734.604389199987,736.0009630999994,500,1,[1.4193947999738157],[1.4194435998797417],01,001,2024-11-09_13h03.57.924,IntentionalBindingTask,2024.1.5,None,2024-11-09 13h04.09.149740 +0530,
0.7,400,unexp,14,5,173,2,736.0120019998867,,736.0027844000142,736.0120019998867,737.0103551000357,737.0103551000357,737.0272913000081,737.5288723998237,space,0.5114986998960376,None,737.5297817999963,738.2433585664878,738.5746515998617,738.5506019999739,738.5506801998708,738.5746515998617,738.5746515998617,738.5746515998617,739.7139220000245,300,1,[1.1609261000994593],[1.1609366999473423],01,001,2024-11-09_13h03.57.924,IntentionalBindingTask,2024.1.5,None,2024-11-09 13h04.09.149740 +0530,
0.7,1000,exp,14,6,174,11,739.7239641998895,,739.7150286999531,739.7239641998895,740.724165200023,740.724165200023,740.724165200023,741.042765500024,space,0.316716399975121,None,741.0438734998461,741.7563835664807,742.0817972000223,742.0577614998911,742.057819499867,742.0817972000223,742.0817972000223,742.0817972000223,743.1916841999628,300,1,[1.13127680006437],[1.1312903000507504],01,001,2024-11-09_13h03.57.924,IntentionalBindingTask,2024.1.5,None,2024-11-09 13h04.09.149740 +0530,
0.4,400,unexp,14,7,175,1,743.20470319991,,743.193066299893,743.20470319991,744.2038012000266,744.2038012000266,744.2038012000266,744.5218052000273,space,0.30484539992175996,None,744.5231261998415,744.9364340666837,745.2590324999765,745.2373071999755,745.2373615000397,745.2590324999765,745.2590324999765,745.2590324999765,746.7128601998556,300,1,[1.4728599998634309],[1.4728784000035375],01,001,2024-11-09_13h03.57.924,IntentionalBindingTask,2024.1.5,None,2024-11-09 13h04.09.149740 +0530,
0.1,400,unexp,14,8,176,0,746.7215093998238,,746.7155226999894,746.7215093998238,747.7171842998359,747.7171842998359,747.7344421998132,748.1355854999274,space,0.41455530002713203,None,748.1367851998657,748.2502167665555,748.5727338998113,748.5481532998383,748.5482039998751,748.5727338998113,748.5727338998113,748.5727338998113,750.2415685998276,400,1,[1.6908789998851717],[1.6908928998745978],01,001,2024-11-09_13h03.57.924,IntentionalBindingTask,2024.1.5,None,2024-11-09 13h04.09.149740 +0530,
0.4,1000,exp,14,9,177,10,750.2512183999643,,750.2442001998425,750.2512183999643,751.247595399851,751.247595399851,751.2638719999231,781.2375945998356,space,29.972915899939835,None,781.2384654998314,781.6526630665796,781.9709608999547,781.9474333999678,781.9475155000109,781.9709608999547,781.9709608999547,781.9709608999547,783.6901648999192,300,1,[1.7395426998846233],[1.73955660010688],01,001,2024-11-09_13h03.57.924,IntentionalBindingTask,2024.1.5,None,2024-11-09 13h04.09.149740 +0530,
0.1,1000,exp,14,10,178,6,783.700260499958,,783.6915935999714,783.700260499958,784.6996158999391,784.6996158999391,784.7165073999204,785.0176888999995,space,0.31500449986197054,None,785.0185406999663,785.1339231664936,785.4641817999072,785.4406490998808,785.4406904999632,785.4641817999072,785.4641817999072,785.4641817999072,786.51682839985,300,1,[1.073577499948442],[1.073592099826783],01,001,2024-11-09_13h03.57.924,IntentionalBindingTask,2024.1.5,None,2024-11-09 13h04.09.149740 +0530,
0.1,1000,exp,14,11,179,9,786.5308574999217,,786.5186170998495,786.5308574999217,787.530956499977,787.530956499977,787.530956499977,787.9315919999499,space,0.3899031998589635,None,787.9324898999184,788.0463887665576,788.3718826998957,788.3473604000174,788.3474238000344,788.3718826998957,788.3718826998957,788.3718826998957,789.4270880999975,400,1,[1.0770516998600215],[1.0770585997961462],01,001,2024-11-09_13h03.57.924,IntentionalBindingTask,2024.1.5,None,2024-11-09 13h04.09.149740 +0530,
0.7,400,unexp,15,0,180,2,789.4437009999529,,789.4280926999636,789.4437009999529,790.4423257999588,790.4423257999588,790.4423257999588,790.7935122998897,space,0.3500254999380559,None,790.7938282999676,791.4938379666457,791.8199295999948,791.7978301998228,791.7978751999326,791.8199295999948,791.8199295999948,791.8199295999948,793.3597357999533,600,1,[1.5592690999619663],[1.559281999943778],01,001,2024-11-09_13h03.57.924,IntentionalBindingTask,2024.1.5,None,2024-11-09 13h04.09.149740 +0530,
0.7,1000,exp,15,1,181,5,793.3741903998889,,793.3611522999126,793.3741903998889,794.3722539998125,794.3722539998125,794.390858199913,794.6924870999064,space,0.31821439997293055,None,794.6934976000339,795.4061876666422,795.7302693999372,795.7076110998169,795.7076564999297,795.7302693999372,795.7302693999372,795.7302693999372,797.7578347998206,400,1,[2.047490800032392],[2.0475107000675052],01,001,2024-11-09_13h03.57.924,IntentionalBindingTask,2024.1.5,None,2024-11-09 13h04.09.149740 +0530,
0.1,400,unexp,15,2,182,0,797.7702587000094,,797.7592154999729,797.7702587000094,798.7686232000124,798.7686232000124,798.7686232000124,799.2712501999922,space,0.5004333998076618,None,799.2720563998446,799.3861217667038,799.7116266998928,799.6876564000268,799.6876993000042,799.7116266998928,799.7116266998928,799.7116266998928,801.0019920000341,500,1,[1.3116746000014246],[1.3116905000060797],01,001,2024-11-09_13h03.57.924,IntentionalBindingTask,2024.1.5,None,2024-11-09 13h04.09.149740 +0530,
0.1,1000,exp,15,3,183,6,801.0167095998768,,801.0038556999061,801.0167095998768,802.0166996000335,802.0166996000335,802.0166996000335,814.085061499849,space,12.058077099965885,None,814.0859984999988,814.2002388665608,814.5203968000133,814.4972361000255,814.4972953000106,814.5203968000133,814.5203968000133,814.5203968000133,817.6350918000098,500,1,[3.134375600144267],[3.134395700180903],01,001,2024-11-09_13h03.57.924,IntentionalBindingTask,2024.1.5,None,2024-11-09 13h04.09.149740 +0530,
0.4,400,unexp,15,4,184,1,817.6467938998248,,817.6370989999268,817.6467938998248,818.6460259000305,818.6460259000305,818.6460259000305,819.8461998000275,space,1.1931500998325646,None,819.8474685000256,820.2610132666925,820.5811618999578,820.5575031999033,820.5575558999553,820.5811618999578,820.5811618999578,820.5811618999578,822.2941673998721,400,1,[1.7339900999795645],[1.7340319999493659],01,001,2024-11-09_13h03.57.924,IntentionalBindingTask,2024.1.5,None,2024-11-09 13h04.09.149740 +0530,
0.4,1000,exp,15,5,185,4,822.3090170000214,,822.2958564998116,822.3090170000214,823.3082017998677,823.3082017998677,823.3082017998677,823.8592946999706,space,0.5366021001245826,None,823.8602136999834,824.2736756664856,824.5869801000226,824.5766521999612,824.5766804998275,824.5869801000226,824.5869801000226,824.5869801000226,827.922768499935,500,1,[3.3440537999849766],[3.344070899998769],01,001,2024-11-09_13h03.57.924,IntentionalBindingTask,2024.1.5,None,2024-11-09 13h04.09.149740 +0530,
0.1,1000,exp,15,6,186,9,827.9372372999787,,827.924349399982,827.9372372999787,828.9363656998612,828.9363656998612,828.9363656998612,829.0211847999599,space,0.0769152999855578,None,829.0222740999889,829.1362462666041,829.4590133999009,829.4378706999123,829.4379654999357,829.4590133999009,829.4590133999009,829.4590133999009,831.0202324998099,400,1,[1.5793606000952423],[1.579375500092283],01,001,2024-11-09_13h03.57.924,IntentionalBindingTask,2024.1.5,None,2024-11-09 13h04.09.149740 +0530,
0.7,1000,exp,15,7,187,11,831.0341960999649,,831.0218582998496,831.0341960999649,832.0335078998469,832.0335078998469,832.0335078998469,832.3516926998273,space,0.31309710000641644,None,832.3525357998442,833.0660266664966,833.3902997998521,833.3675328998361,833.3675808999687,833.3902997998521,833.3902997998521,833.3902997998521,836.4481118998956,600,1,[3.077791600022465],[3.077805400127545],01,001,2024-11-09_13h03.57.924,IntentionalBindingTask,2024.1.5,None,2024-11-09 13h04.09.149740 +0530,
0.4,1000,exp,15,8,188,10,836.4624673998915,,836.4508177998941,836.4624673998915,837.4618236999959,837.4618236999959,837.4618236999959,837.9629061999731,space,0.4926652000285685,None,837.9638421998825,838.3776497666879,838.6993325999938,838.6775036000181,838.6775529999286,838.6993325999938,838.6993325999938,838.6993325999938,840.4779562999029,500,1,[1.7976005000527948],[1.7976189001929015],01,001,2024-11-09_13h03.57.924,IntentionalBindingTask,2024.1.5,None,2024-11-09 13h04.09.149740 +0530,
0.1,1000,exp,15,9,189,3,840.4923411000054,,840.4800110999495,840.4923411000054,841.4917233998422,841.4917233998422,841.4917233998422,841.59267059993,space,None,None,841.5943824998103,841.707903766601,842.0294214999303,842.007939199917,842.0079903998412,842.0294214999303,842.0294214999303,842.0294214999303,843.4581395999994,500,1,[1.4472551001235843],[1.447270100004971],01,001,2024-11-09_13h03.57.924,IntentionalBindingTask,2024.1.5,None,2024-11-09 13h04.09.149740 +0530,
0.7,1000,exp,15,10,190,8,843.4726074999198,,843.4597533999477,843.4726074999198,844.4716761999298,844.4716761999298,844.4716761999298,844.7266035999637,space,0.21828679996542633,None,844.727355599869,845.4375525667022,845.7598695999477,845.7376571998466,845.7377023999579,845.7598695999477,845.7598695999477,845.7598695999477,847.188237000024,500,1,[1.4476550000254065],[1.447672399925068],01,001,2024-11-09_13h03.57.924,IntentionalBindingTask,2024.1.5,None,2024-11-09 13h04.09.149740 +0530,
0.4,1000,exp,15,11,191,7,847.2024824998807,,847.1904146999586,847.2024824998807,848.2019154999871,848.2019154999871,848.2019154999871,848.5695722999517,space,0.3547543999738991,None,848.5705522999633,848.9840672666362,849.2986707999371,849.2871900999453,849.2872203998268,849.2986707999371,849.2986707999371,849.2986707999371,852.1332755999174,500,1,[2.8444324999582022],[2.8444436001591384],01,001,2024-11-09_13h03.57.924,IntentionalBindingTask,2024.1.5,None,2024-11-09 13h04.09.149740 +0530,
0.1,1000,exp,16,0,192,6,852.1476703998633,,852.134430399863,852.1476703998633,853.1469840998761,853.1469840998761,853.1469840998761,855.0140107998159,space,1.8624150999821723,None,855.0150227998383,855.1285195665589,855.4506649000105,855.4282497998793,855.428293999983,855.4506649000105,855.4506649000105,855.4506649000105,856.9789678000379,500,1,[1.5479626001324505],[1.547977700131014],01,001,2024-11-09_13h03.57.924,IntentionalBindingTask,2024.1.5,None,2024-11-09 13h04.09.149740 +0530,
0.4,1000,exp,16,1,193,7,856.9933424999472,,856.9809950999916,856.9933424999472,857.9926594998688,857.9926594998688,857.9926594998688,858.3605919999536,space,0.3536886000074446,None,858.3617357998155,858.7752765666849,859.0987370000221,859.077579600038,859.0776645999867,859.0987370000221,859.0987370000221,859.0987370000221,860.9082919999491,600,1,[1.8278459999710321],[1.8278620999772102],01,001,2024-11-09_13h03.57.924,IntentionalBindingTask,2024.1.5,None,2024-11-09 13h04.09.149740 +0530,
0.7,1000,exp,16,2,194,11,860.9229641999118,,860.9106368999928,860.9229641999118,861.9223815998994,861.9223815998994,861.9223815998994,862.2570145998616,space,0.3254907999653369,None,862.2579591998365,862.9713537665705,863.2917622998357,863.2676384998485,863.2676913000178,863.2917622998357,863.2917622998357,863.2917622998357,866.5196593999863,600,1,[3.249371600104496],[3.249389900127426],01,001,2024-11-09_13h03.57.924,IntentionalBindingTask,2024.1.5,None,2024-11-09 13h04.09.149740 +0530,
0.7,400,unexp,16,3,195,2,866.5344128999859,,866.5222940999083,866.5344128999859,867.5338647000026,867.5338647000026,867.5338647000026,867.8360297998879,space,0.2988724000751972,None,867.8370176998433,868.5493416665743,868.869859999977,868.8473912999034,868.8474355998915,868.869859999977,868.869859999977,868.869859999977,872.4140514000319,400,1,[3.5632344000041485],[3.56324729998596],01,001,2024-11-09_13h03.57.924,IntentionalBindingTask,2024.1.5,None,2024-11-09 13h04.09.149740 +0530,
0.7,1000,exp,16,4,196,8,872.428879099898,,872.4167281000409,872.428879099898,873.428039399907,873.428039399907,873.428039399907,873.6133610999677,space,0.18079159990884364,None,873.6142506999895,874.3273775666642,874.6481375999283,874.6276294998825,874.6276874998584,874.6481375999283,874.6481375999283,874.6481375999283,876.3783476999961,600,1,[1.7479721000418067],[1.7479932999704033],01,001,2024-11-09_13h03.57.924,IntentionalBindingTask,2024.1.5,None,2024-11-09 13h04.09.149740 +0530,
0.4,1000,exp,16,5,197,10,876.3918478998821,,876.3802690999582,876.3918478998821,877.391174999997,877.391174999997,877.391174999997,877.6092234000098,space,0.21283149998635054,None,877.6100855998229,878.0237939665715,878.3491833999287,878.3271275998559,878.3271698998287,878.3491833999287,878.3491833999287,878.3491833999287,879.1913787999656,300,1,[0.8616772999521345],[0.8616929999552667],01,001,2024-11-09_13h03.57.924,IntentionalBindingTask,2024.1.5,None,2024-11-09 13h04.09.149740 +0530,
0.4,1000,exp,16,6,198,4,879.2059151998255,,879.1931840998586,879.2059151998255,880.2054095999338,880.2054095999338,880.2054095999338,880.5100086999591,space,0.30137869995087385,None,880.510869699996,880.9210452666196,881.2411193000153,881.2173670998309,881.2174122999422,881.2411193000153,881.2411193000153,881.2411193000153,882.2737792998087,400,1,[1.0534739000722766],[1.0534959000069648],01,001,2024-11-09_13h03.57.924,IntentionalBindingTask,2024.1.5,None,2024-11-09 13h04.09.149740 +0530,
0.4,400,unexp,16,7,199,1,882.2865603000391,,882.2757720998488,882.2865603000391,883.2856659998652,883.2856659998652,883.3022833999712,883.4202856998891,space,0.12163690011948347,None,883.4211798999459,883.8350041665292,884.1595065998845,884.1377842999063,884.1378327999264,884.1595065998845,884.1595065998845,884.1595065998845,884.9521645999048,300,1,[0.8085624999366701],[0.8085813999641687],01,001,2024-11-09_13h03.57.924,IntentionalBindingTask,2024.1.5,None,2024-11-09 13h04.09.149740 +0530,
